VAMAS Surface Chemical Analysis Standard Data Transfer Format 1988 May 4
Specs
PHOIBOS HSA3500 150 R6[HWType 30:14] MCD-9
Anna
?
4
Casa Info Follows
0
Created by SpecsLab2, Version 2.72-r21963
SourceAnalyserAngle: Not Specified
NORM
REGULAR
18
4
Cycle
d
zValue
d
Step
d
Timestamp [ms]
d
0
0
0
0
18
02-Pd
Pd-AlOx
2015
12
2
17
21
37
0
13
Casa Info Follows
0
0
0
0
File = F:\Anna-Lenovo\2015\XPS-analysis\Pd-AlOx\02-12-15\02-12-15-AK-60-asis-01-bis.xml
Group = Pd-AlOx
First of group = 1
Analyzer lens = MediumArea
Analyzer slit = 5:7x20\2:open
Scan mode = FixedAnalyzerTransmission
Kinetic energy start = 897.6
Kinetic energy base = 0
XPS
1
0
0
0
Mg
1253.6
0
0
0
0
0
FAT
20
1
4.61
0
0
0
0
0
02-Pd

-1
kinetic energy
eV
897.6
0.1
2
counts
d
Transmission
d
pulse counting
0.5
1
0
0
0
0
0
482
2209
2762
2.95367
2.9931
2504
2.9931
2390
2.99294
2551
2.99277
2483
2.9926
2510
2.99243
2540
2.99227
2570
2.9921
2449
2.99193
2454
2.99176
2541
2.9916
2467
2.99143
2455
2.99126
2503
2.99109
2399
2.99093
2476
2.99076
2447
2.99059
2492
2.99043
2447
2.99026
2468
2.99009
2533
2.98992
2465
2.98976
2469
2.98959
2461
2.98942
2417
2.98926
2425
2.98909
2533
2.98892
2443
2.98876
2448
2.98859
2512
2.98842
2470
2.98825
2472
2.98809
2414
2.98792
2452
2.98775
2509
2.98759
2484
2.98742
2491
2.98725
2513
2.98709
2495
2.98692
2487
2.98676
2452
2.98659
2545
2.98642
2537
2.98626
2424
2.98609
2569
2.98592
2447
2.98576
2529
2.98559
2469
2.98542
2507
2.98526
2526
2.98509
2388
2.98493
2468
2.98476
2568
2.98459
2494
2.98443
2505
2.98426
2521
2.98409
2484
2.98393
2470
2.98376
2477
2.9836
2542
2.98343
2535
2.98326
2420
2.9831
2519
2.98293
2486
2.98277
2379
2.9826
2480
2.98243
2605
2.98227
2608
2.9821
2529
2.98194
2566
2.98177
2496
2.98161
2505
2.98144
2573
2.98127
2588
2.98111
2521
2.98094
2625
2.98078
2521
2.98061
2593
2.98045
2511
2.98028
2560
2.98012
2544
2.97995
2590
2.97979
2631
2.97962
2551
2.97945
2599
2.97929
2657
2.97912
2642
2.97896
2603
2.97879
2592
2.97863
2555
2.97846
2625
2.9783
2604
2.97813
2578
2.97797
2615
2.9778
2485
2.97764
2643
2.97747
2489
2.97731
2575
2.97714
2579
2.97698
2454
2.97681
2504
2.97665
2581
2.97648
2477
2.97632
2400
2.97615
2634
2.97599
2530
2.97582
2498
2.97566
2390
2.9755
2462
2.97533
2446
2.97517
2519
2.975
2506
2.97484
2460
2.97467
2503
2.97451
2432
2.97434
2489
2.97418
2603
2.97401
2508
2.97385
2478
2.97369
2578
2.97352
2537
2.97336
2511
2.97319
2494
2.97303
2533
2.97286
2564
2.9727
2582
2.97254
2578
2.97237
2708
2.97221
2499
2.97204
2603
2.97188
2703
2.97172
2568
2.97155
2649
2.97139
2629
2.97122
2704
2.97106
2707
2.9709
2747
2.97073
2561
2.97057
2762
2.9704
2637
2.97024
2709
2.97008
2697
2.96991
2746
2.96975
2610
2.96959
2644
2.96942
2620
2.96926
2609
2.96909
2640
2.96893
2559
2.96877
2529
2.9686
2565
2.96844
2579
2.96828
2529
2.96811
2576
2.96795
2477
2.96779
2561
2.96762
2531
2.96746
2468
2.9673
2379
2.96713
2462
2.96697
2433
2.96681
2375
2.96664
2479
2.96648
2484
2.96632
2324
2.96615
2362
2.96599
2420
2.96583
2383
2.96567
2409
2.9655
2461
2.96534
2457
2.96518
2463
2.96501
2337
2.96485
2422
2.96469
2245
2.96452
2357
2.96436
2345
2.9642
2350
2.96404
2362
2.96387
2363
2.96371
2354
2.96355
2326
2.96339
2209
2.96322
2340
2.96306
2436
2.9629
2341
2.96274
2328
2.96257
2273
2.96241
2478
2.96225
2469
2.96209
2353
2.96192
2271
2.96176
2251
2.9616
2382
2.96144
2368
2.96127
2231
2.96111
2303
2.96095
2328
2.96079
2371
2.96062
2293
2.96046
2315
2.9603
2345
2.96014
2422
2.95998
2392
2.95981
2435
2.95965
2274
2.95949
2326
2.95933
2297
2.95917
2292
2.959
2368
2.95884
2289
2.95868
2359
2.95852
2364
2.95836
2357
2.95819
2496
2.95803
2430
2.95787
2372
2.95771
2345
2.95755
2362
2.95739
2390
2.95722
2298
2.95706
2325
2.9569
2356
2.95674
2290
2.95658
2303
2.95642
2406
2.95626
2325
2.95609
2361
2.95593
2438
2.95577
2346
2.95561
2325
2.95545
2338
2.95529
2363
2.95513
2393
2.95496
2365
2.9548
2427
2.95464
2376
2.95448
2281
2.95432
2328
2.95416
2396
2.954
2316
2.95384
2403
2.95367
02-Pd
Pd-AlOx
2015
12
2
17
23
57
0
13
Casa Info Follows
0
0
0
0
File = F:\Anna-Lenovo\2015\XPS-analysis\Pd-AlOx\02-12-15\02-12-15-AK-60-asis-01-bis.xml
Group = Pd-AlOx
First of group = 0
Analyzer lens = MediumArea
Analyzer slit = 5:7x20\2:open
Scan mode = FixedAnalyzerTransmission
Kinetic energy start = 897.6
Kinetic energy base = 0
XPS
1
0
0
0
Mg
1253.6
0
0
0
0
0
FAT
20
1
4.61
0
0
0
0
0
02-Pd

-1
kinetic energy
eV
897.6
0.1
2
counts
d
Transmission
d
pulse counting
0.5
1
0
0
0
0
0
482
2245
2754
2.95367
2.9931
2580
2.9931
2526
2.99294
2505
2.99277
2509
2.9926
2477
2.99243
2491
2.99227
2381
2.9921
2489
2.99193
2486
2.99176
2454
2.9916
2432
2.99143
2564
2.99126
2558
2.99109
2520
2.99093
2481
2.99076
2426
2.99059
2384
2.99043
2498
2.99026
2528
2.99009
2445
2.98992
2456
2.98976
2519
2.98959
2508
2.98942
2443
2.98926
2572
2.98909
2402
2.98892
2454
2.98876
2352
2.98859
2410
2.98842
2514
2.98825
2493
2.98809
2502
2.98792
2416
2.98775
2498
2.98759
2460
2.98742
2471
2.98725
2469
2.98709
2481
2.98692
2458
2.98676
2505
2.98659
2464
2.98642
2443
2.98626
2518
2.98609
2509
2.98592
2529
2.98576
2527
2.98559
2487
2.98542
2499
2.98526
2508
2.98509
2455
2.98493
2496
2.98476
2547
2.98459
2491
2.98443
2543
2.98426
2474
2.98409
2488
2.98393
2465
2.98376
2542
2.9836
2587
2.98343
2399
2.98326
2575
2.9831
2455
2.98293
2557
2.98277
2496
2.9826
2478
2.98243
2556
2.98227
2500
2.9821
2572
2.98194
2456
2.98177
2597
2.98161
2530
2.98144
2614
2.98127
2509
2.98111
2673
2.98094
2583
2.98078
2609
2.98061
2552
2.98045
2555
2.98028
2607
2.98012
2604
2.97995
2541
2.97979
2634
2.97962
2595
2.97945
2519
2.97929
2701
2.97912
2589
2.97896
2568
2.97879
2571
2.97863
2680
2.97846
2616
2.9783
2576
2.97813
2615
2.97797
2591
2.9778
2485
2.97764
2593
2.97747
2491
2.97731
2546
2.97714
2593
2.97698
2509
2.97681
2542
2.97665
2524
2.97648
2459
2.97632
2530
2.97615
2486
2.97599
2419
2.97582
2460
2.97566
2546
2.9755
2486
2.97533
2577
2.97517
2473
2.975
2481
2.97484
2602
2.97467
2418
2.97451
2512
2.97434
2459
2.97418
2506
2.97401
2485
2.97385
2537
2.97369
2481
2.97352
2532
2.97336
2637
2.97319
2545
2.97303
2580
2.97286
2627
2.9727
2531
2.97254
2576
2.97237
2639
2.97221
2655
2.97204
2538
2.97188
2587
2.97172
2539
2.97155
2670
2.97139
2657
2.97122
2552
2.97106
2645
2.9709
2626
2.97073
2670
2.97057
2673
2.9704
2674
2.97024
2656
2.97008
2654
2.96991
2658
2.96975
2754
2.96959
2679
2.96942
2721
2.96926
2618
2.96909
2607
2.96893
2601
2.96877
2655
2.9686
2558
2.96844
2553
2.96828
2538
2.96811
2523
2.96795
2512
2.96779
2484
2.96762
2567
2.96746
2469
2.9673
2515
2.96713
2492
2.96697
2411
2.96681
2514
2.96664
2324
2.96648
2470
2.96632
2377
2.96615
2461
2.96599
2304
2.96583
2443
2.96567
2245
2.9655
2354
2.96534
2375
2.96518
2420
2.96501
2366
2.96485
2407
2.96469
2266
2.96452
2306
2.96436
2386
2.9642
2445
2.96404
2336
2.96387
2329
2.96371
2412
2.96355
2306
2.96339
2513
2.96322
2409
2.96306
2379
2.9629
2293
2.96274
2354
2.96257
2300
2.96241
2354
2.96225
2356
2.96209
2382
2.96192
2441
2.96176
2342
2.9616
2303
2.96144
2346
2.96127
2300
2.96111
2375
2.96095
2375
2.96079
2414
2.96062
2282
2.96046
2312
2.9603
2321
2.96014
2366
2.95998
2308
2.95981
2274
2.95965
2335
2.95949
2322
2.95933
2379
2.95917
2300
2.959
2376
2.95884
2363
2.95868
2260
2.95852
2318
2.95836
2436
2.95819
2362
2.95803
2407
2.95787
2311
2.95771
2321
2.95755
2283
2.95739
2454
2.95722
2405
2.95706
2309
2.9569
2292
2.95674
2330
2.95658
2286
2.95642
2348
2.95626
2415
2.95609
2306
2.95593
2294
2.95577
2397
2.95561
2367
2.95545
2417
2.95529
2261
2.95513
2303
2.95496
2401
2.9548
2404
2.95464
2275
2.95448
2321
2.95432
2254
2.95416
2359
2.954
2371
2.95384
2325
2.95367
02-Pd
Pd-AlOx
2015
12
2
17
26
18
0
13
Casa Info Follows
0
0
0
0
File = F:\Anna-Lenovo\2015\XPS-analysis\Pd-AlOx\02-12-15\02-12-15-AK-60-asis-01-bis.xml
Group = Pd-AlOx
First of group = 0
Analyzer lens = MediumArea
Analyzer slit = 5:7x20\2:open
Scan mode = FixedAnalyzerTransmission
Kinetic energy start = 897.6
Kinetic energy base = 0
XPS
1
0
0
0
Mg
1253.6
0
0
0
0
0
FAT
20
1
4.61
0
0
0
0
0
02-Pd

-1
kinetic energy
eV
897.6
0.1
2
counts
d
Transmission
d
pulse counting
0.5
1
0
0
0
0
0
482
2238
2762
2.95367
2.9931
2517
2.9931
2512
2.99294
2371
2.99277
2456
2.9926
2494
2.99243
2501
2.99227
2431
2.9921
2355
2.99193
2447
2.99176
2544
2.9916
2511
2.99143
2497
2.99126
2517
2.99109
2459
2.99093
2360
2.99076
2391
2.99059
2452
2.99043
2417
2.99026
2553
2.99009
2497
2.98992
2488
2.98976
2458
2.98959
2470
2.98942
2492
2.98926
2447
2.98909
2468
2.98892
2507
2.98876
2354
2.98859
2450
2.98842
2466
2.98825
2404
2.98809
2472
2.98792
2478
2.98775
2509
2.98759
2367
2.98742
2375
2.98725
2483
2.98709
2525
2.98692
2381
2.98676
2516
2.98659
2466
2.98642
2459
2.98626
2408
2.98609
2520
2.98592
2508
2.98576
2477
2.98559
2541
2.98542
2407
2.98526
2517
2.98509
2462
2.98493
2484
2.98476
2471
2.98459
2507
2.98443
2455
2.98426
2454
2.98409
2424
2.98393
2458
2.98376
2465
2.9836
2484
2.98343
2472
2.98326
2457
2.9831
2488
2.98293
2559
2.98277
2442
2.9826
2466
2.98243
2545
2.98227
2491
2.9821
2542
2.98194
2629
2.98177
2538
2.98161
2444
2.98144
2560
2.98127
2548
2.98111
2522
2.98094
2516
2.98078
2604
2.98061
2639
2.98045
2630
2.98028
2551
2.98012
2592
2.97995
2605
2.97979
2577
2.97962
2569
2.97945
2691
2.97929
2607
2.97912
2658
2.97896
2547
2.97879
2588
2.97863
2590
2.97846
2567
2.9783
2722
2.97813
2552
2.97797
2678
2.9778
2512
2.97764
2546
2.97747
2612
2.97731
2550
2.97714
2586
2.97698
2528
2.97681
2532
2.97665
2461
2.97648
2414
2.97632
2556
2.97615
2482
2.97599
2483
2.97582
2471
2.97566
2458
2.9755
2549
2.97533
2458
2.97517
2448
2.975
2423
2.97484
2548
2.97467
2425
2.97451
2434
2.97434
2545
2.97418
2472
2.97401
2440
2.97385
2583
2.97369
2511
2.97352
2501
2.97336
2505
2.97319
2621
2.97303
2648
2.97286
2547
2.9727
2524
2.97254
2544
2.97237
2471
2.97221
2530
2.97204
2594
2.97188
2593
2.97172
2621
2.97155
2598
2.97139
2599
2.97122
2595
2.97106
2530
2.9709
2762
2.97073
2716
2.97057
2665
2.9704
2561
2.97024
2702
2.97008
2647
2.96991
2628
2.96975
2574
2.96959
2646
2.96942
2500
2.96926
2524
2.96909
2627
2.96893
2747
2.96877
2592
2.9686
2588
2.96844
2471
2.96828
2586
2.96811
2462
2.96795
2517
2.96779
2421
2.96762
2579
2.96746
2491
2.9673
2451
2.96713
2446
2.96697
2466
2.96681
2367
2.96664
2442
2.96648
2382
2.96632
2417
2.96615
2449
2.96599
2322
2.96583
2452
2.96567
2389
2.9655
2398
2.96534
2423
2.96518
2438
2.96501
2238
2.96485
2368
2.96469
2366
2.96452
2381
2.96436
2368
2.9642
2314
2.96404
2329
2.96387
2411
2.96371
2371
2.96355
2250
2.96339
2362
2.96322
2315
2.96306
2289
2.9629
2348
2.96274
2347
2.96257
2336
2.96241
2352
2.96225
2297
2.96209
2308
2.96192
2361
2.96176
2433
2.9616
2278
2.96144
2319
2.96127
2266
2.96111
2368
2.96095
2333
2.96079
2387
2.96062
2339
2.96046
2309
2.9603
2282
2.96014
2276
2.95998
2317
2.95981
2257
2.95965
2390
2.95949
2379
2.95933
2376
2.95917
2263
2.959
2342
2.95884
2346
2.95868
2335
2.95852
2327
2.95836
2258
2.95819
2303
2.95803
2295
2.95787
2348
2.95771
2262
2.95755
2363
2.95739
2243
2.95722
2371
2.95706
2430
2.9569
2406
2.95674
2276
2.95658
2281
2.95642
2327
2.95626
2373
2.95609
2346
2.95593
2352
2.95577
2361
2.95561
2334
2.95545
2285
2.95529
2367
2.95513
2334
2.95496
2377
2.9548
2330
2.95464
2319
2.95448
2426
2.95432
2301
2.95416
2322
2.954
2313
2.95384
2269
2.95367
02-Pd
Pd-AlOx
2015
12
2
17
28
39
0
13
Casa Info Follows
0
0
0
0
File = F:\Anna-Lenovo\2015\XPS-analysis\Pd-AlOx\02-12-15\02-12-15-AK-60-asis-01-bis.xml
Group = Pd-AlOx
First of group = 0
Analyzer lens = MediumArea
Analyzer slit = 5:7x20\2:open
Scan mode = FixedAnalyzerTransmission
Kinetic energy start = 897.6
Kinetic energy base = 0
XPS
1
0
0
0
Mg
1253.6
0
0
0
0
0
FAT
20
1
4.61
0
0
0
0
0
02-Pd

-1
kinetic energy
eV
897.6
0.1
2
counts
d
Transmission
d
pulse counting
0.5
1
0
0
0
0
0
482
2217
2723
2.95367
2.9931
2448
2.9931
2448
2.99294
2523
2.99277
2393
2.9926
2492
2.99243
2497
2.99227
2463
2.9921
2513
2.99193
2459
2.99176
2450
2.9916
2445
2.99143
2425
2.99126
2400
2.99109
2524
2.99093
2490
2.99076
2459
2.99059
2441
2.99043
2500
2.99026
2477
2.99009
2415
2.98992
2399
2.98976
2407
2.98959
2436
2.98942
2481
2.98926
2505
2.98909
2385
2.98892
2468
2.98876
2441
2.98859
2492
2.98842
2544
2.98825
2377
2.98809
2383
2.98792
2495
2.98775
2499
2.98759
2436
2.98742
2460
2.98725
2402
2.98709
2574
2.98692
2439
2.98676
2508
2.98659
2430
2.98642
2547
2.98626
2400
2.98609
2482
2.98592
2471
2.98576
2415
2.98559
2406
2.98542
2511
2.98526
2473
2.98509
2443
2.98493
2519
2.98476
2472
2.98459
2474
2.98443
2587
2.98426
2547
2.98409
2558
2.98393
2464
2.98376
2459
2.9836
2460
2.98343
2435
2.98326
2502
2.9831
2513
2.98293
2617
2.98277
2495
2.9826
2458
2.98243
2554
2.98227
2604
2.9821
2501
2.98194
2507
2.98177
2563
2.98161
2460
2.98144
2516
2.98127
2583
2.98111
2555
2.98094
2548
2.98078
2615
2.98061
2556
2.98045
2607
2.98028
2583
2.98012
2544
2.97995
2601
2.97979
2612
2.97962
2598
2.97945
2692
2.97929
2609
2.97912
2522
2.97896
2643
2.97879
2553
2.97863
2625
2.97846
2558
2.9783
2625
2.97813
2535
2.97797
2635
2.9778
2578
2.97764
2575
2.97747
2614
2.97731
2607
2.97714
2557
2.97698
2552
2.97681
2471
2.97665
2586
2.97648
2465
2.97632
2391
2.97615
2434
2.97599
2591
2.97582
2537
2.97566
2439
2.9755
2491
2.97533
2394
2.97517
2445
2.975
2480
2.97484
2448
2.97467
2458
2.97451
2502
2.97434
2464
2.97418
2434
2.97401
2483
2.97385
2587
2.97369
2481
2.97352
2558
2.97336
2537
2.97319
2432
2.97303
2545
2.97286
2558
2.9727
2534
2.97254
2494
2.97237
2559
2.97221
2632
2.97204
2533
2.97188
2620
2.97172
2647
2.97155
2583
2.97139
2592
2.97122
2591
2.97106
2665
2.9709
2658
2.97073
2634
2.97057
2687
2.9704
2628
2.97024
2615
2.97008
2580
2.96991
2723
2.96975
2696
2.96959
2634
2.96942
2526
2.96926
2635
2.96909
2556
2.96893
2543
2.96877
2568
2.9686
2633
2.96844
2581
2.96828
2503
2.96811
2512
2.96795
2539
2.96779
2457
2.96762
2475
2.96746
2425
2.9673
2483
2.96713
2319
2.96697
2440
2.96681
2433
2.96664
2446
2.96648
2311
2.96632
2530
2.96615
2401
2.96599
2409
2.96583
2437
2.96567
2398
2.9655
2440
2.96534
2232
2.96518
2389
2.96501
2386
2.96485
2273
2.96469
2423
2.96452
2346
2.96436
2306
2.9642
2371
2.96404
2275
2.96387
2385
2.96371
2329
2.96355
2368
2.96339
2266
2.96322
2354
2.96306
2385
2.9629
2301
2.96274
2377
2.96257
2397
2.96241
2258
2.96225
2374
2.96209
2386
2.96192
2385
2.96176
2371
2.9616
2317
2.96144
2346
2.96127
2345
2.96111
2316
2.96095
2339
2.96079
2278
2.96062
2303
2.96046
2351
2.9603
2376
2.96014
2238
2.95998
2239
2.95981
2357
2.95965
2330
2.95949
2421
2.95933
2316
2.95917
2418
2.959
2217
2.95884
2316
2.95868
2345
2.95852
2379
2.95836
2335
2.95819
2367
2.95803
2288
2.95787
2449
2.95771
2349
2.95755
2372
2.95739
2365
2.95722
2404
2.95706
2372
2.9569
2332
2.95674
2355
2.95658
2336
2.95642
2336
2.95626
2341
2.95609
2333
2.95593
2329
2.95577
2368
2.95561
2316
2.95545
2332
2.95529
2366
2.95513
2323
2.95496
2387
2.9548
2303
2.95464
2281
2.95448
2350
2.95432
2331
2.95416
2318
2.954
2246
2.95384
2265
2.95367
02-Pd
Pd-AlOx
2015
12
2
17
30
59
0
13
Casa Info Follows
0
0
0
0
File = F:\Anna-Lenovo\2015\XPS-analysis\Pd-AlOx\02-12-15\02-12-15-AK-60-asis-01-bis.xml
Group = Pd-AlOx
First of group = 0
Analyzer lens = MediumArea
Analyzer slit = 5:7x20\2:open
Scan mode = FixedAnalyzerTransmission
Kinetic energy start = 897.6
Kinetic energy base = 0
XPS
1
0
0
0
Mg
1253.6
0
0
0
0
0
FAT
20
1
4.61
0
0
0
0
0
02-Pd

-1
kinetic energy
eV
897.6
0.1
2
counts
d
Transmission
d
pulse counting
0.5
1
0
0
0
0
0
482
2244
2712
2.95367
2.9931
2524
2.9931
2507
2.99294
2400
2.99277
2578
2.9926
2529
2.99243
2538
2.99227
2555
2.9921
2461
2.99193
2518
2.99176
2446
2.9916
2440
2.99143
2424
2.99126
2507
2.99109
2425
2.99093
2453
2.99076
2431
2.99059
2500
2.99043
2406
2.99026
2467
2.99009
2398
2.98992
2434
2.98976
2454
2.98959
2493
2.98942
2445
2.98926
2546
2.98909
2448
2.98892
2381
2.98876
2413
2.98859
2438
2.98842
2478
2.98825
2432
2.98809
2417
2.98792
2393
2.98775
2495
2.98759
2401
2.98742
2522
2.98725
2490
2.98709
2399
2.98692
2455
2.98676
2447
2.98659
2503
2.98642
2469
2.98626
2506
2.98609
2521
2.98592
2456
2.98576
2506
2.98559
2434
2.98542
2474
2.98526
2458
2.98509
2575
2.98493
2503
2.98476
2388
2.98459
2496
2.98443
2372
2.98426
2549
2.98409
2497
2.98393
2562
2.98376
2396
2.9836
2505
2.98343
2405
2.98326
2515
2.9831
2463
2.98293
2461
2.98277
2487
2.9826
2519
2.98243
2422
2.98227
2483
2.9821
2588
2.98194
2561
2.98177
2484
2.98161
2569
2.98144
2590
2.98127
2453
2.98111
2589
2.98094
2625
2.98078
2496
2.98061
2496
2.98045
2576
2.98028
2597
2.98012
2629
2.97995
2583
2.97979
2621
2.97962
2560
2.97945
2556
2.97929
2609
2.97912
2576
2.97896
2671
2.97879
2608
2.97863
2633
2.97846
2636
2.9783
2588
2.97813
2595
2.97797
2630
2.9778
2532
2.97764
2518
2.97747
2575
2.97731
2606
2.97714
2555
2.97698
2523
2.97681
2545
2.97665
2564
2.97648
2480
2.97632
2514
2.97615
2480
2.97599
2377
2.97582
2408
2.97566
2493
2.9755
2474
2.97533
2454
2.97517
2539
2.975
2470
2.97484
2522
2.97467
2505
2.97451
2341
2.97434
2556
2.97418
2481
2.97401
2482
2.97385
2508
2.97369
2471
2.97352
2555
2.97336
2537
2.97319
2466
2.97303
2525
2.97286
2482
2.9727
2582
2.97254
2558
2.97237
2439
2.97221
2613
2.97204
2561
2.97188
2611
2.97172
2597
2.97155
2691
2.97139
2547
2.97122
2676
2.97106
2689
2.9709
2615
2.97073
2549
2.97057
2668
2.9704
2659
2.97024
2638
2.97008
2584
2.96991
2710
2.96975
2602
2.96959
2647
2.96942
2668
2.96926
2641
2.96909
2521
2.96893
2627
2.96877
2600
2.9686
2712
2.96844
2547
2.96828
2635
2.96811
2615
2.96795
2521
2.96779
2444
2.96762
2528
2.96746
2433
2.9673
2495
2.96713
2430
2.96697
2406
2.96681
2380
2.96664
2433
2.96648
2393
2.96632
2424
2.96615
2455
2.96599
2390
2.96583
2436
2.96567
2503
2.9655
2368
2.96534
2415
2.96518
2244
2.96501
2326
2.96485
2381
2.96469
2323
2.96452
2359
2.96436
2427
2.9642
2313
2.96404
2337
2.96387
2444
2.96371
2362
2.96355
2361
2.96339
2381
2.96322
2358
2.96306
2375
2.9629
2356
2.96274
2420
2.96257
2397
2.96241
2313
2.96225
2277
2.96209
2338
2.96192
2341
2.96176
2379
2.9616
2310
2.96144
2315
2.96127
2295
2.96111
2298
2.96095
2296
2.96079
2258
2.96062
2462
2.96046
2363
2.9603
2302
2.96014
2321
2.95998
2329
2.95981
2378
2.95965
2335
2.95949
2357
2.95933
2356
2.95917
2308
2.959
2339
2.95884
2378
2.95868
2321
2.95852
2330
2.95836
2377
2.95819
2322
2.95803
2264
2.95787
2336
2.95771
2305
2.95755
2269
2.95739
2300
2.95722
2348
2.95706
2331
2.9569
2373
2.95674
2376
2.95658
2286
2.95642
2333
2.95626
2310
2.95609
2417
2.95593
2401
2.95577
2337
2.95561
2326
2.95545
2415
2.95529
2336
2.95513
2328
2.95496
2293
2.9548
2284
2.95464
2314
2.95448
2371
2.95432
2353
2.95416
2377
2.954
2291
2.95384
2281
2.95367
02-Pd
Pd-AlOx
2015
12
2
17
33
20
0
13
Casa Info Follows
0
0
0
0
File = F:\Anna-Lenovo\2015\XPS-analysis\Pd-AlOx\02-12-15\02-12-15-AK-60-asis-01-bis.xml
Group = Pd-AlOx
First of group = 0
Analyzer lens = MediumArea
Analyzer slit = 5:7x20\2:open
Scan mode = FixedAnalyzerTransmission
Kinetic energy start = 897.6
Kinetic energy base = 0
XPS
1
0
0
0
Mg
1253.6
0
0
0
0
0
FAT
20
1
4.61
0
0
0
0
0
02-Pd

-1
kinetic energy
eV
897.6
0.1
2
counts
d
Transmission
d
pulse counting
0.5
1
0
0
0
0
0
482
2225
2719
2.95367
2.9931
2496
2.9931
2471
2.99294
2329
2.99277
2440
2.9926
2458
2.99243
2440
2.99227
2509
2.9921
2469
2.99193
2476
2.99176
2517
2.9916
2362
2.99143
2441
2.99126
2518
2.99109
2470
2.99093
2508
2.99076
2449
2.99059
2436
2.99043
2393
2.99026
2376
2.99009
2466
2.98992
2451
2.98976
2531
2.98959
2508
2.98942
2433
2.98926
2472
2.98909
2424
2.98892
2429
2.98876
2466
2.98859
2470
2.98842
2441
2.98825
2415
2.98809
2388
2.98792
2407
2.98775
2537
2.98759
2412
2.98742
2372
2.98725
2390
2.98709
2485
2.98692
2482
2.98676
2459
2.98659
2461
2.98642
2446
2.98626
2486
2.98609
2410
2.98592
2453
2.98576
2403
2.98559
2483
2.98542
2477
2.98526
2368
2.98509
2440
2.98493
2503
2.98476
2398
2.98459
2443
2.98443
2363
2.98426
2524
2.98409
2430
2.98393
2397
2.98376
2477
2.9836
2534
2.98343
2467
2.98326
2423
2.9831
2455
2.98293
2410
2.98277
2562
2.9826
2483
2.98243
2541
2.98227
2470
2.9821
2497
2.98194
2503
2.98177
2544
2.98161
2559
2.98144
2472
2.98127
2562
2.98111
2516
2.98094
2555
2.98078
2502
2.98061
2505
2.98045
2565
2.98028
2536
2.98012
2675
2.97995
2651
2.97979
2647
2.97962
2609
2.97945
2565
2.97929
2590
2.97912
2516
2.97896
2562
2.97879
2653
2.97863
2580
2.97846
2563
2.9783
2528
2.97813
2550
2.97797
2563
2.9778
2541
2.97764
2651
2.97747
2477
2.97731
2535
2.97714
2501
2.97698
2567
2.97681
2520
2.97665
2364
2.97648
2445
2.97632
2514
2.97615
2523
2.97599
2466
2.97582
2502
2.97566
2530
2.9755
2461
2.97533
2454
2.97517
2504
2.975
2424
2.97484
2487
2.97467
2379
2.97451
2446
2.97434
2472
2.97418
2493
2.97401
2454
2.97385
2451
2.97369
2433
2.97352
2551
2.97336
2496
2.97319
2507
2.97303
2471
2.97286
2491
2.9727
2505
2.97254
2431
2.97237
2556
2.97221
2501
2.97204
2595
2.97188
2607
2.97172
2521
2.97155
2574
2.97139
2510
2.97122
2538
2.97106
2581
2.9709
2621
2.97073
2523
2.97057
2616
2.9704
2651
2.97024
2719
2.97008
2627
2.96991
2605
2.96975
2685
2.96959
2659
2.96942
2719
2.96926
2645
2.96909
2640
2.96893
2693
2.96877
2643
2.9686
2596
2.96844
2589
2.96828
2493
2.96811
2481
2.96795
2466
2.96779
2570
2.96762
2531
2.96746
2467
2.9673
2471
2.96713
2438
2.96697
2466
2.96681
2390
2.96664
2434
2.96648
2462
2.96632
2414
2.96615
2440
2.96599
2366
2.96583
2361
2.96567
2294
2.9655
2353
2.96534
2333
2.96518
2413
2.96501
2380
2.96485
2418
2.96469
2342
2.96452
2382
2.96436
2435
2.9642
2339
2.96404
2345
2.96387
2332
2.96371
2401
2.96355
2373
2.96339
2317
2.96322
2362
2.96306
2433
2.9629
2418
2.96274
2331
2.96257
2225
2.96241
2414
2.96225
2443
2.96209
2340
2.96192
2325
2.96176
2356
2.9616
2361
2.96144
2352
2.96127
2338
2.96111
2253
2.96095
2331
2.96079
2331
2.96062
2296
2.96046
2287
2.9603
2236
2.96014
2371
2.95998
2245
2.95981
2287
2.95965
2229
2.95949
2230
2.95933
2303
2.95917
2376
2.959
2353
2.95884
2302
2.95868
2308
2.95852
2436
2.95836
2394
2.95819
2279
2.95803
2374
2.95787
2333
2.95771
2401
2.95755
2333
2.95739
2259
2.95722
2264
2.95706
2373
2.9569
2334
2.95674
2268
2.95658
2415
2.95642
2381
2.95626
2319
2.95609
2302
2.95593
2378
2.95577
2351
2.95561
2350
2.95545
2373
2.95529
2289
2.95513
2323
2.95496
2294
2.9548
2284
2.95464
2361
2.95448
2357
2.95432
2383
2.95416
2307
2.954
2293
2.95384
2329
2.95367
02-Al2p
Pd-AlOx
2015
12
2
17
35
41
0
13
Casa Info Follows
0
0
0
0
File = F:\Anna-Lenovo\2015\XPS-analysis\Pd-AlOx\02-12-15\02-12-15-AK-60-asis-01-bis.xml
Group = Pd-AlOx
First of group = 0
Analyzer lens = MediumArea
Analyzer slit = 5:7x20\2:open
Scan mode = FixedAnalyzerTransmission
Kinetic energy start = 1163.6
Kinetic energy base = 0
XPS
1
0
0
0
Mg
1253.6
0
0
0
0
0
FAT
20
1
4.61
0
0
0
0
0
02-Al2p

-1
kinetic energy
eV
1163.6
0.1
2
counts
d
Transmission
d
pulse counting
0.5
1
0
0
0
0
0
502
952
3576
2.59939
2.62727
1146
2.62727
1196
2.62716
1179
2.62705
1176
2.62693
1160
2.62682
1113
2.62671
1162
2.62659
1185
2.62648
1168
2.62637
1171
2.62625
1193
2.62614
1051
2.62603
1156
2.62591
1158
2.6258
1180
2.62569
1113
2.62557
1166
2.62546
1143
2.62535
1144
2.62523
1128
2.62512
1148
2.62501
1172
2.6249
1165
2.62478
1155
2.62467
1097
2.62456
1099
2.62444
1118
2.62433
1113
2.62422
1118
2.6241
1171
2.62399
1157
2.62388
1103
2.62377
1090
2.62365
1116
2.62354
1093
2.62343
1111
2.62331
1077
2.6232
1088
2.62309
1089
2.62298
1091
2.62286
1094
2.62275
1115
2.62264
1118
2.62253
1091
2.62241
1058
2.6223
1073
2.62219
1075
2.62207
1082
2.62196
1052
2.62185
1105
2.62174
1076
2.62162
1082
2.62151
1108
2.6214
1003
2.62129
1099
2.62117
1129
2.62106
1147
2.62095
1132
2.62084
1024
2.62072
1102
2.62061
1125
2.6205
1144
2.62039
1101
2.62027
1099
2.62016
1097
2.62005
1133
2.61994
1092
2.61982
1064
2.61971
1136
2.6196
1119
2.61949
1185
2.61937
1128
2.61926
1112
2.61915
1138
2.61904
1129
2.61893
1172
2.61881
1155
2.6187
1166
2.61859
1185
2.61848
1221
2.61836
1247
2.61825
1276
2.61814
1331
2.61803
1346
2.61792
1368
2.6178
1405
2.61769
1518
2.61758
1558
2.61747
1637
2.61735
1751
2.61724
1770
2.61713
1815
2.61702
2072
2.61691
2269
2.61679
2329
2.61668
2429
2.61657
2554
2.61646
2700
2.61635
2826
2.61623
2894
2.61612
3116
2.61601
3155
2.6159
3356
2.61579
3349
2.61568
3395
2.61556
3488
2.61545
3573
2.61534
3576
2.61523
3523
2.61512
3391
2.615
3288
2.61489
3309
2.61478
3170
2.61467
3043
2.61456
2962
2.61445
2777
2.61433
2741
2.61422
2561
2.61411
2461
2.614
2352
2.61389
2168
2.61378
2019
2.61366
1933
2.61355
1832
2.61344
1709
2.61333
1686
2.61322
1647
2.61311
1546
2.613
1486
2.61288
1400
2.61277
1342
2.61266
1282
2.61255
1293
2.61244
1288
2.61233
1272
2.61222
1215
2.6121
1282
2.61199
1157
2.61188
1200
2.61177
1178
2.61166
1172
2.61155
1194
2.61144
1159
2.61132
1112
2.61121
1210
2.6111
1080
2.61099
1142
2.61088
1107
2.61077
1123
2.61066
1112
2.61055
1067
2.61043
1028
2.61032
1083
2.61021
1145
2.6101
1135
2.60999
1089
2.60988
1087
2.60977
1029
2.60966
1079
2.60955
1116
2.60943
1157
2.60932
1145
2.60921
1079
2.6091
1091
2.60899
1102
2.60888
1139
2.60877
1100
2.60866
1069
2.60855
1097
2.60844
1092
2.60832
1033
2.60821
1068
2.6081
1082
2.60799
1140
2.60788
1167
2.60777
1142
2.60766
1081
2.60755
1129
2.60744
1091
2.60733
1137
2.60722
1167
2.60711
1113
2.60699
1153
2.60688
1141
2.60677
1171
2.60666
1203
2.60655
1212
2.60644
1230
2.60633
1201
2.60622
1188
2.60611
1291
2.606
1296
2.60589
1183
2.60578
1299
2.60567
1259
2.60556
1253
2.60545
1277
2.60534
1290
2.60522
1282
2.60511
1255
2.605
1262
2.60489
1205
2.60478
1204
2.60467
1244
2.60456
1237
2.60445
1284
2.60434
1202
2.60423
1213
2.60412
1252
2.60401
1246
2.6039
1172
2.60379
1173
2.60368
1187
2.60357
1189
2.60346
1172
2.60335
1151
2.60324
1149
2.60313
1170
2.60302
1169
2.60291
1100
2.6028
1115
2.60269
1126
2.60258
1176
2.60247
1105
2.60236
1081
2.60225
1095
2.60214
1090
2.60203
1050
2.60192
1082
2.60181
1024
2.6017
1070
2.60159
1028
2.60148
1019
2.60137
1048
2.60126
1053
2.60115
1006
2.60104
1033
2.60093
1015
2.60082
975
2.60071
989
2.6006
993
2.60049
1048
2.60038
952
2.60027
1083
2.60016
1095
2.60005
1036
2.59994
1085
2.59983
1021
2.59972
995
2.59961
994
2.5995
1042
2.59939
02-C1s
Pd-AlOx
2015
12
2
17
38
7
0
13
Casa Info Follows
0
0
0
0
File = F:\Anna-Lenovo\2015\XPS-analysis\Pd-AlOx\02-12-15\02-12-15-AK-60-asis-01-bis.xml
Group = Pd-AlOx
First of group = 0
Analyzer lens = MediumArea
Analyzer slit = 5:7x20\2:open
Scan mode = FixedAnalyzerTransmission
Kinetic energy start = 942.6
Kinetic energy base = 0
XPS
1
0
0
0
Mg
1253.6
0
0
0
0
0
FAT
20
1
4.61
0
0
0
0
0
02-C1s

-1
kinetic energy
eV
942.6
0.1
2
counts
d
Transmission
d
pulse counting
0.5
1
0
0
0
0
0
682
1852
2829
2.86889
2.92042
2196
2.92042
2224
2.92027
2249
2.92011
2109
2.91996
2137
2.9198
2127
2.91965
2166
2.91949
2231
2.91933
2185
2.91918
2056
2.91902
2174
2.91887
2155
2.91871
2187
2.91856
2072
2.9184
2176
2.91825
2109
2.91809
2163
2.91794
2171
2.91778
2167
2.91763
2038
2.91747
2164
2.91732
2027
2.91716
2185
2.91701
2141
2.91685
2172
2.91669
2154
2.91654
2198
2.91638
2140
2.91623
2207
2.91607
2077
2.91592
2122
2.91576
2113
2.91561
2113
2.91545
2246
2.9153
2158
2.91515
2112
2.91499
2187
2.91484
2090
2.91468
2153
2.91453
2216
2.91437
2186
2.91422
2142
2.91406
2234
2.91391
2243
2.91375
2124
2.9136
2204
2.91344
2155
2.91329
2241
2.91313
2253
2.91298
2313
2.91283
2210
2.91267
2234
2.91252
2251
2.91236
2284
2.91221
2202
2.91205
2314
2.9119
2172
2.91174
2374
2.91159
2235
2.91144
2290
2.91128
2327
2.91113
2324
2.91097
2422
2.91082
2496
2.91067
2511
2.91051
2421
2.91036
2431
2.9102
2463
2.91005
2511
2.9099
2545
2.90974
2502
2.90959
2580
2.90943
2552
2.90928
2609
2.90913
2588
2.90897
2654
2.90882
2610
2.90866
2714
2.90851
2610
2.90836
2604
2.9082
2671
2.90805
2709
2.9079
2532
2.90774
2676
2.90759
2632
2.90743
2668
2.90728
2559
2.90713
2587
2.90697
2557
2.90682
2554
2.90667
2446
2.90651
2578
2.90636
2468
2.90621
2395
2.90605
2407
2.9059
2315
2.90575
2343
2.90559
2275
2.90544
2408
2.90529
2342
2.90513
2235
2.90498
2236
2.90483
2232
2.90467
2231
2.90452
2197
2.90437
2243
2.90421
2146
2.90406
2157
2.90391
2171
2.90375
2162
2.9036
2142
2.90345
2137
2.9033
2118
2.90314
2126
2.90299
2129
2.90284
2085
2.90268
2090
2.90253
2197
2.90238
2095
2.90223
2088
2.90207
2046
2.90192
2004
2.90177
2042
2.90161
2141
2.90146
2089
2.90131
2064
2.90116
1994
2.901
2081
2.90085
2171
2.9007
2061
2.90055
2086
2.90039
2094
2.90024
2083
2.90009
2029
2.89994
2041
2.89978
2021
2.89963
2061
2.89948
1956
2.89933
2012
2.89917
2061
2.89902
2003
2.89887
2038
2.89872
2023
2.89857
1972
2.89841
1950
2.89826
2017
2.89811
2021
2.89796
1989
2.89781
2088
2.89765
2034
2.8975
1988
2.89735
2004
2.8972
2015
2.89705
2092
2.89689
2095
2.89674
2022
2.89659
2083
2.89644
2038
2.89629
1999
2.89613
2042
2.89598
2090
2.89583
2075
2.89568
2168
2.89553
2054
2.89537
1993
2.89522
2120
2.89507
2060
2.89492
2119
2.89477
2160
2.89462
2107
2.89447
2106
2.89431
2146
2.89416
2094
2.89401
2195
2.89386
2157
2.89371
2157
2.89356
2148
2.8934
2189
2.89325
2078
2.8931
2140
2.89295
2271
2.8928
2176
2.89265
2199
2.8925
2200
2.89235
2139
2.89219
2177
2.89204
2233
2.89189
2161
2.89174
2234
2.89159
2208
2.89144
2170
2.89129
2266
2.89114
2228
2.89099
2341
2.89083
2218
2.89068
2281
2.89053
2327
2.89038
2389
2.89023
2537
2.89008
2512
2.88993
2503
2.88978
2530
2.88963
2630
2.88948
2663
2.88933
2614
2.88918
2829
2.88902
2727
2.88887
2713
2.88872
2801
2.88857
2776
2.88842
2786
2.88827
2813
2.88812
2799
2.88797
2770
2.88782
2751
2.88767
2734
2.88752
2664
2.88737
2649
2.88722
2599
2.88707
2597
2.88692
2528
2.88677
2517
2.88662
2497
2.88647
2417
2.88632
2328
2.88617
2369
2.88601
2323
2.88586
2156
2.88571
2254
2.88556
2304
2.88541
2121
2.88526
2198
2.88511
2194
2.88496
2093
2.88481
2145
2.88466
2037
2.88451
2107
2.88436
2109
2.88421
2158
2.88406
2051
2.88391
2104
2.88376
2007
2.88361
2109
2.88346
2062
2.88331
2063
2.88316
2030
2.88301
2091
2.88287
2047
2.88272
2199
2.88257
2119
2.88242
2103
2.88227
2175
2.88212
2143
2.88197
2190
2.88182
2120
2.88167
2137
2.88152
2233
2.88137
2142
2.88122
2127
2.88107
2126
2.88092
2039
2.88077
2061
2.88062
2059
2.88047
2093
2.88032
1986
2.88017
2146
2.88002
2067
2.87987
2026
2.87973
2017
2.87958
1928
2.87943
1944
2.87928
1987
2.87913
1974
2.87898
1974
2.87883
1939
2.87868
2022
2.87853
1939
2.87838
1860
2.87823
1937
2.87809
1994
2.87794
1958
2.87779
1900
2.87764
1999
2.87749
1890
2.87734
2060
2.87719
1928
2.87704
1983
2.87689
1993
2.87675
1885
2.8766
2021
2.87645
2052
2.8763
2004
2.87615
1955
2.876
1964
2.87585
2009
2.8757
1969
2.87556
1995
2.87541
1962
2.87526
1967
2.87511
1927
2.87496
2001
2.87481
1935
2.87466
1935
2.87452
2030
2.87437
2002
2.87422
1904
2.87407
1989
2.87392
1916
2.87377
1929
2.87363
1973
2.87348
2006
2.87333
1887
2.87318
2005
2.87303
1995
2.87288
1903
2.87274
1910
2.87259
1937
2.87244
1943
2.87229
2020
2.87214
1918
2.872
1862
2.87185
1868
2.8717
1918
2.87155
1895
2.8714
1953
2.87126
1866
2.87111
1905
2.87096
1920
2.87081
1891
2.87066
1936
2.87052
1852
2.87037
2011
2.87022
1952
2.87007
1908
2.86992
1922
2.86978
1973
2.86963
1925
2.86948
1919
2.86933
1964
2.86919
1957
2.86904
1913
2.86889
03-Survey
Pd-AlOx
2015
12
2
17
41
39
0
13
Casa Info Follows
0
0
0
0
File = F:\Anna-Lenovo\2015\XPS-analysis\Pd-AlOx\02-12-15\02-12-15-AK-60-asis-01-bis.xml
Group = Pd-AlOx
First of group = 0
Analyzer lens = MediumArea
Analyzer slit = 5:7x20\2:open
Scan mode = FixedAnalyzerTransmission
Kinetic energy start = 153.6
Kinetic energy base = 0
XPS
1
0
0
0
Mg
1253.6
0
0
0
0
0
FAT
50
1
4.61
0
0
0
0
0
03-Survey

-1
kinetic energy
eV
153.6
0.2
2
counts
d
Transmission
d
pulse counting
0.1
3
0
0
0
0
0
11052
2952
54829
9.98408
28.9652
54338
28.9652
54829
28.9458
54236
28.9264
53883
28.907
54793
28.8877
54269
28.8685
54047
28.8492
54075
28.8301
53669
28.8109
54074
28.7918
53688
28.7727
53950
28.7537
53583
28.7347
53510
28.7157
53336
28.6968
53658
28.6779
53396
28.6591
53514
28.6402
53407
28.6215
52701
28.6027
53493
28.584
53121
28.5654
52826
28.5467
53068
28.5281
52743
28.5096
52089
28.4911
52779
28.4726
52149
28.4541
52453
28.4357
52582
28.4173
52734
28.399
51806
28.3807
51961
28.3624
52055
28.3442
52343
28.326
52401
28.3078
51704
28.2897
51851
28.2716
51559
28.2535
51591
28.2355
51554
28.2175
51249
28.1996
51441
28.1817
51232
28.1638
51035
28.1459
51350
28.1281
50858
28.1103
51394
28.0925
50822
28.0748
51047
28.0571
50915
28.0395
50804
28.0219
50927
28.0043
50455
27.9867
51224
27.9692
50728
27.9517
50458
27.9343
50232
27.9168
50025
27.8995
50715
27.8821
49864
27.8648
50132
27.8475
50237
27.8302
49963
27.813
49592
27.7958
50052
27.7786
49520
27.7615
50021
27.7444
49742
27.7273
49724
27.7103
49033
27.6933
49419
27.6763
48928
27.6594
49366
27.6425
49261
27.6256
48745
27.6087
48629
27.5919
49100
27.5751
48879
27.5584
49221
27.5416
48797
27.5249
48989
27.5083
48279
27.4916
48209
27.475
49003
27.4584
48713
27.4419
48439
27.4254
48502
27.4089
48103
27.3924
48321
27.376
48081
27.3596
48497
27.3432
48540
27.3269
48045
27.3106
47963
27.2943
47869
27.278
48289
27.2618
47799
27.2456
48108
27.2295
48022
27.2133
48454
27.1972
47925
27.1811
47809
27.1651
47463
27.1491
48003
27.1331
48248
27.1171
47859
27.1012
48158
27.0853
47920
27.0694
47363
27.0535
47875
27.0377
47761
27.0219
47675
27.0061
47306
26.9904
46881
26.9747
47129
26.959
47387
26.9433
47363
26.9277
47621
26.9121
47239
26.8965
46831
26.8809
47004
26.8654
47201
26.8499
46746
26.8344
47262
26.819
46854
26.8036
46900
26.7882
46434
26.7728
46439
26.7575
46430
26.7422
46445
26.7269
46724
26.7116
46776
26.6964
46364
26.6812
46125
26.666
46462
26.6508
46564
26.6357
46251
26.6206
45857
26.6055
45995
26.5905
46086
26.5755
46063
26.5604
45604
26.5455
45619
26.5305
45825
26.5156
45803
26.5007
45743
26.4858
45537
26.471
45514
26.4561
45116
26.4413
45207
26.4266
45135
26.4118
45172
26.3971
45287
26.3824
45026
26.3677
44968
26.353
44896
26.3384
44602
26.3238
44941
26.3092
44880
26.2947
44911
26.2801
44432
26.2656
44727
26.2512
44575
26.2367
44908
26.2223
44405
26.2078
44574
26.1935
44391
26.1791
44139
26.1647
44148
26.1504
44195
26.1361
44337
26.1219
43783
26.1076
44257
26.0934
43717
26.0792
44025
26.065
44202
26.0509
43907
26.0367
43622
26.0226
43823
26.0085
43857
25.9945
43805
25.9804
43934
25.9664
43892
25.9524
43773
25.9384
43534
25.9245
43703
25.9106
43580
25.8967
43067
25.8828
43575
25.8689
43364
25.8551
42893
25.8413
43105
25.8275
43101
25.8137
43502
25.7999
43689
25.7862
43171
25.7725
43385
25.7588
43022
25.7452
42845
25.7315
42960
25.7179
42766
25.7043
42864
25.6907
42471
25.6772
42513
25.6636
42319
25.6501
42749
25.6366
42486
25.6232
42363
25.6097
42031
25.5963
42583
25.5829
42190
25.5695
42502
25.5561
41927
25.5428
42544
25.5295
42694
25.5162
42086
25.5029
42058
25.4896
42225
25.4764
42211
25.4632
42516
25.45
41800
25.4368
41937
25.4237
42137
25.4105
41880
25.3974
41703
25.3843
41925
25.3712
41618
25.3582
42040
25.3451
41581
25.3321
41739
25.3191
41402
25.3062
41417
25.2932
41243
25.2803
41195
25.2674
41291
25.2545
41574
25.2416
41177
25.2287
41346
25.2159
41037
25.2031
41648
25.1903
41406
25.1775
41175
25.1647
40958
25.152
41276
25.1393
41027
25.1266
41094
25.1139
40813
25.1012
40946
25.0886
40983
25.076
40919
25.0634
41023
25.0508
40423
25.0382
40719
25.0257
40658
25.0131
40538
25.0006
40967
24.9881
40719
24.9757
40639
24.9632
40588
24.9508
40438
24.9384
40428
24.926
40598
24.9136
40568
24.9012
40678
24.8889
40412
24.8765
40608
24.8642
40469
24.852
40685
24.8397
40847
24.8274
40721
24.8152
40933
24.803
40771
24.7908
41583
24.7786
40927
24.7664
41331
24.7543
40776
24.7422
41046
24.7301
41240
24.718
40904
24.7059
40933
24.6938
40757
24.6818
40883
24.6698
40479
24.6578
40861
24.6458
40538
24.6338
40925
24.6219
40042
24.6099
40571
24.598
40453
24.5861
40097
24.5743
40087
24.5624
39832
24.5505
39967
24.5387
39799
24.5269
39473
24.5151
39515
24.5033
39537
24.4916
39909
24.4798
39426
24.4681
39041
24.4564
39499
24.4447
39432
24.433
39444
24.4214
39845
24.4097
39298
24.3981
39384
24.3865
39330
24.3749
38992
24.3633
38979
24.3517
39308
24.3402
39017
24.3287
39157
24.3172
38667
24.3057
38932
24.2942
38721
24.2827
38987
24.2713
39107
24.2598
38596
24.2484
38750
24.237
38617
24.2256
38639
24.2143
38937
24.2029
38656
24.1916
38551
24.1803
38485
24.169
38318
24.1577
38626
24.1464
38567
24.1352
38117
24.1239
38584
24.1127
38371
24.1015
38606
24.0903
38072
24.0791
38114
24.068
38371
24.0568
38110
24.0457
38104
24.0346
38213
24.0235
38002
24.0124
37905
24.0013
37931
23.9903
38102
23.9792
37797
23.9682
37718
23.9572
37824
23.9462
37876
23.9352
37775
23.9243
37443
23.9133
37709
23.9024
38045
23.8915
37699
23.8806
37403
23.8697
37571
23.8588
37613
23.8479
37553
23.8371
37290
23.8263
37428
23.8155
37468
23.8047
37461
23.7939
37262
23.7831
37136
23.7724
37129
23.7616
37300
23.7509
37095
23.7402
37327
23.7295
36863
23.7188
36874
23.7081
37344
23.6975
37060
23.6868
36919
23.6762
37137
23.6656
37005
23.655
37025
23.6444
36952
23.6339
36807
23.6233
37159
23.6128
36674
23.6022
37217
23.5917
36669
23.5812
36527
23.5707
36785
23.5603
37062
23.5498
36626
23.5394
36739
23.529
36715
23.5185
36568
23.5081
36846
23.4978
36537
23.4874
36633
23.477
36612
23.4667
37037
23.4563
36835
23.446
36739
23.4357
36407
23.4254
36394
23.4152
36646
23.4049
36288
23.3946
36474
23.3844
36916
23.3742
36362
23.364
36759
23.3538
36772
23.3436
36624
23.3334
36544
23.3233
36591
23.3131
36666
23.303
36359
23.2929
36860
23.2828
36787
23.2727
36436
23.2626
36381
23.2525
36170
23.2425
36359
23.2325
36573
23.2224
36279
23.2124
36264
23.2024
36181
23.1924
36274
23.1825
36149
23.1725
36138
23.1625
35797
23.1526
36047
23.1427
36173
23.1328
35945
23.1229
35859
23.113
36050
23.1031
35823
23.0933
35911
23.0834
36171
23.0736
35646
23.0638
35919
23.054
35853
23.0442
36060
23.0344
35939
23.0246
35690
23.0149
35353
23.0051
35694
22.9954
35485
22.9857
35867
22.9759
35264
22.9662
35907
22.9566
35312
22.9469
35639
22.9372
35304
22.9276
35511
22.9179
35167
22.9083
35423
22.8987
35209
22.8891
35516
22.8795
34985
22.8699
35377
22.8604
35135
22.8508
35355
22.8413
35145
22.8318
34827
22.8222
35213
22.8127
34808
22.8033
34741
22.7938
34997
22.7843
34898
22.7748
34893
22.7654
34657
22.756
34614
22.7465
34758
22.7371
34604
22.7277
34608
22.7184
34482
22.709
34862
22.6996
34772
22.6903
34481
22.6809
34647
22.6716
34757
22.6623
34903
22.653
34706
22.6437
34517
22.6344
34731
22.6251
34994
22.6159
34613
22.6066
34439
22.5974
34827
22.5882
34754
22.5789
34665
22.5697
34679
22.5605
34614
22.5514
34820
22.5422
34612
22.533
34671
22.5239
34455
22.5148
34821
22.5056
34736
22.4965
34535
22.4874
34632
22.4783
34221
22.4692
34656
22.4602
34703
22.4511
34392
22.4421
34808
22.433
34797
22.424
34633
22.415
34532
22.406
34409
22.397
34957
22.388
34639
22.379
34295
22.3701
34311
22.3611
34737
22.3522
34605
22.3433
34682
22.3343
34395
22.3254
34519
22.3165
34429
22.3077
34132
22.2988
34173
22.2899
34108
22.2811
34415
22.2722
34208
22.2634
33941
22.2546
34184
22.2457
34227
22.2369
33896
22.2282
34174
22.2194
33746
22.2106
33608
22.2018
33859
22.1931
33844
22.1843
33884
22.1756
33813
22.1669
33507
22.1582
33833
22.1495
33684
22.1408
33610
22.1321
33367
22.1235
33188
22.1148
33337
22.1062
33355
22.0975
33177
22.0889
33137
22.0803
33182
22.0717
33241
22.0631
32780
22.0545
33159
22.0459
33011
22.0373
33158
22.0288
32816
22.0202
32647
22.0117
32791
22.0032
32736
21.9947
32650
21.9861
32621
21.9777
32599
21.9692
32556
21.9607
32263
21.9522
32353
21.9438
32567
21.9353
32010
21.9269
31865
21.9184
31976
21.91
31701
21.9016
31991
21.8932
31595
21.8848
31950
21.8764
31859
21.8681
31583
21.8597
31670
21.8514
31683
21.843
31592
21.8347
31700
21.8264
31407
21.818
31388
21.8097
31338
21.8015
31288
21.7932
31497
21.7849
31214
21.7766
31436
21.7684
31564
21.7601
31600
21.7519
31480
21.7437
31359
21.7354
31262
21.7272
30956
21.719
31231
21.7108
31161
21.7026
31089
21.6945
31031
21.6863
31088
21.6782
30723
21.67
30744
21.6619
30517
21.6537
30523
21.6456
30640
21.6375
30437
21.6294
30323
21.6213
30334
21.6132
30508
21.6052
30343
21.5971
30205
21.5891
30241
21.581
30192
21.573
29800
21.5649
30326
21.5569
29858
21.5489
29939
21.5409
30187
21.5329
29919
21.5249
29537
21.517
29526
21.509
29586
21.5011
29687
21.4931
29634
21.4852
29781
21.4772
29678
21.4693
29459
21.4614
29810
21.4535
29461
21.4456
28885
21.4377
29139
21.4298
29610
21.422
29463
21.4141
29280
21.4063
29392
21.3984
29171
21.3906
29550
21.3828
29454
21.3749
28896
21.3671
29243
21.3593
28938
21.3515
29090
21.3438
29154
21.336
28858
21.3282
28935
21.3205
28944
21.3127
28882
21.305
29197
21.2972
28523
21.2895
28898
21.2818
28924
21.2741
28566
21.2664
28888
21.2587
28999
21.251
28606
21.2433
28354
21.2357
28706
21.228
28502
21.2204
28620
21.2127
28447
21.2051
28797
21.1975
28617
21.1899
28346
21.1823
28565
21.1747
28726
21.1671
28407
21.1595
28796
21.1519
28300
21.1443
28513
21.1368
28637
21.1292
28143
21.1217
28308
21.1142
28386
21.1066
28273
21.0991
28550
21.0916
28051
21.0841
28181
21.0766
28194
21.0691
28799
21.0616
28003
21.0542
28151
21.0467
28055
21.0393
28061
21.0318
28322
21.0244
28170
21.0169
28095
21.0095
28315
21.0021
28323
20.9947
28062
20.9873
28014
20.9799
28172
20.9725
28272
20.9651
28191
20.9578
28007
20.9504
28188
20.9431
28115
20.9357
28007
20.9284
27828
20.9211
28014
20.9137
27929
20.9064
28080
20.8991
28264
20.8918
27956
20.8845
27797
20.8772
27932
20.87
27822
20.8627
27779
20.8554
28079
20.8482
27623
20.8409
27930
20.8337
27659
20.8265
27644
20.8192
28005
20.812
27657
20.8048
27834
20.7976
27821
20.7904
27803
20.7832
27676
20.7761
27590
20.7689
27482
20.7617
27662
20.7546
27540
20.7474
27656
20.7403
27474
20.7331
27487
20.726
27644
20.7189
27326
20.7118
27588
20.7047
27636
20.6976
27373
20.6905
27591
20.6834
27568
20.6763
27370
20.6693
27402
20.6622
27617
20.6552
27339
20.6481
27391
20.6411
27473
20.634
27168
20.627
27068
20.62
27425
20.613
27212
20.606
27220
20.599
27176
20.592
27213
20.585
27267
20.578
27146
20.5711
27183
20.5641
27126
20.5572
27079
20.5502
27015
20.5433
27016
20.5363
27218
20.5294
27277
20.5225
27077
20.5156
27170
20.5087
26919
20.5018
27365
20.4949
27104
20.488
27096
20.4811
26858
20.4743
26962
20.4674
26959
20.4606
26970
20.4537
27184
20.4469
27152
20.44
26797
20.4332
27066
20.4264
26900
20.4196
26804
20.4128
26846
20.406
26928
20.3992
27021
20.3924
26996
20.3856
26978
20.3788
26767
20.372
26839
20.3653
26778
20.3585
26531
20.3518
26487
20.345
26648
20.3383
26674
20.3316
26475
20.3249
26657
20.3182
26747
20.3114
26723
20.3047
26796
20.2981
26774
20.2914
26709
20.2847
26530
20.278
26797
20.2713
26340
20.2647
26547
20.258
26559
20.2514
26726
20.2447
26532
20.2381
26606
20.2315
26677
20.2249
26386
20.2182
26688
20.2116
26791
20.205
26615
20.1984
26441
20.1918
26386
20.1853
26389
20.1787
26605
20.1721
26532
20.1656
26456
20.159
26095
20.1524
26575
20.1459
26400
20.1394
26516
20.1328
25987
20.1263
26333
20.1198
26279
20.1133
26366
20.1068
26324
20.1003
25962
20.0938
26477
20.0873
26437
20.0808
26176
20.0743
26067
20.0679
26562
20.0614
26431
20.0549
26402
20.0485
26371
20.0421
26439
20.0356
26385
20.0292
26182
20.0228
26225
20.0163
25908
20.0099
26299
20.0035
26069
19.9971
26565
19.9907
26361
19.9843
26295
19.978
26150
19.9716
26246
19.9652
26264
19.9588
26176
19.9525
26413
19.9461
26346
19.9398
26019
19.9335
25745
19.9271
26287
19.9208
25843
19.9145
26286
19.9082
26284
19.9018
26442
19.8955
26339
19.8892
26361
19.883
26306
19.8767
26242
19.8704
26176
19.8641
26292
19.8578
26054
19.8516
26263
19.8453
26151
19.8391
26009
19.8328
26005
19.8266
26261
19.8204
26216
19.8141
26009
19.8079
26008
19.8017
25947
19.7955
25956
19.7893
25566
19.7831
26036
19.7769
25890
19.7707
25922
19.7645
25812
19.7584
25641
19.7522
25820
19.746
25660
19.7399
25599
19.7337
25691
19.7276
25577
19.7214
25637
19.7153
25854
19.7092
25525
19.7031
25475
19.6969
25260
19.6908
25628
19.6847
25753
19.6786
25382
19.6725
25518
19.6665
25603
19.6604
25627
19.6543
25379
19.6482
25285
19.6422
25365
19.6361
25405
19.63
25550
19.624
25464
19.618
25219
19.6119
25348
19.6059
25288
19.5999
25084
19.5938
25248
19.5878
25109
19.5818
25354
19.5758
25007
19.5698
25326
19.5638
25334
19.5578
24990
19.5518
25109
19.5459
25179
19.5399
25091
19.5339
25174
19.528
25062
19.522
24976
19.5161
25345
19.5101
25113
19.5042
24864
19.4983
25110
19.4923
24800
19.4864
25019
19.4805
25384
19.4746
24718
19.4687
25019
19.4628
25067
19.4569
25055
19.451
24794
19.4451
24890
19.4392
24880
19.4333
24613
19.4275
24967
19.4216
24591
19.4158
24881
19.4099
24680
19.4041
24828
19.3982
24822
19.3924
24674
19.3865
24679
19.3807
24881
19.3749
25019
19.3691
25192
19.3633
24866
19.3575
24850
19.3517
24504
19.3459
24848
19.3401
24449
19.3343
24940
19.3285
24624
19.3227
24962
19.317
24626
19.3112
24860
19.3055
24664
19.2997
24728
19.2939
24690
19.2882
24874
19.2825
24325
19.2767
24423
19.271
24828
19.2653
24749
19.2596
24562
19.2539
24415
19.2481
24640
19.2424
24518
19.2367
24409
19.2311
24475
19.2254
24376
19.2197
24357
19.214
24601
19.2083
24431
19.2027
24290
19.197
24483
19.1913
24511
19.1857
24499
19.18
24614
19.1744
24360
19.1688
24549
19.1631
24441
19.1575
24508
19.1519
24718
19.1463
24514
19.1407
24388
19.1351
24261
19.1294
24344
19.1239
24395
19.1183
24224
19.1127
24586
19.1071
24560
19.1015
24502
19.0959
24329
19.0904
24124
19.0848
24435
19.0792
24096
19.0737
24038
19.0681
24389
19.0626
24263
19.0571
24115
19.0515
24258
19.046
24130
19.0405
24198
19.035
24368
19.0294
24063
19.0239
24100
19.0184
24006
19.0129
24393
19.0074
24179
19.0019
24168
18.9964
23933
18.991
23982
18.9855
24118
18.98
24082
18.9745
24279
18.9691
24386
18.9636
24204
18.9582
23778
18.9527
23883
18.9473
23933
18.9418
24294
18.9364
24442
18.931
23845
18.9256
24200
18.9201
24249
18.9147
24293
18.9093
23764
18.9039
24380
18.8985
23774
18.8931
24034
18.8877
24065
18.8823
24041
18.8769
24104
18.8716
23878
18.8662
23977
18.8608
23858
18.8554
23666
18.8501
24056
18.8447
23763
18.8394
24026
18.834
23922
18.8287
23723
18.8233
24156
18.818
23877
18.8127
23983
18.8074
23755
18.802
24168
18.7967
23905
18.7914
24195
18.7861
23690
18.7808
23949
18.7755
23829
18.7702
24054
18.7649
23945
18.7596
23839
18.7544
23975
18.7491
23682
18.7438
23640
18.7386
23954
18.7333
23871
18.728
23526
18.7228
24073
18.7175
24019
18.7123
24068
18.7071
23796
18.7018
23713
18.6966
23383
18.6914
23513
18.6861
23692
18.6809
23440
18.6757
23845
18.6705
23540
18.6653
23550
18.6601
23973
18.6549
23570
18.6497
23799
18.6445
23821
18.6393
23528
18.6342
23721
18.629
23839
18.6238
23543
18.6186
23409
18.6135
23614
18.6083
23645
18.6032
23369
18.598
23491
18.5929
23606
18.5877
23183
18.5826
23770
18.5775
23658
18.5724
23402
18.5672
23469
18.5621
23513
18.557
23625
18.5519
23450
18.5468
23629
18.5417
23558
18.5366
23397
18.5315
23782
18.5264
23655
18.5213
23687
18.5162
23650
18.5112
23456
18.5061
23559
18.501
23502
18.496
23717
18.4909
23419
18.4858
23555
18.4808
23759
18.4757
23439
18.4707
23387
18.4657
23641
18.4606
23518
18.4556
23495
18.4506
23652
18.4455
23630
18.4405
23549
18.4355
23586
18.4305
23351
18.4255
23571
18.4205
23602
18.4155
23194
18.4105
23228
18.4055
23397
18.4005
23428
18.3955
23521
18.3906
23476
18.3856
23383
18.3806
23286
18.3756
23480
18.3707
23201
18.3657
23290
18.3608
23506
18.3558
23435
18.3509
23304
18.3459
23204
18.341
23449
18.3361
23321
18.3311
23006
18.3262
23347
18.3213
23392
18.3164
23178
18.3115
23036
18.3065
23140
18.3016
22954
18.2967
23381
18.2918
23482
18.2869
23428
18.2821
23187
18.2772
23440
18.2723
22922
18.2674
23275
18.2625
23359
18.2577
23305
18.2528
23141
18.2479
23362
18.2431
23125
18.2382
23364
18.2334
23292
18.2285
23104
18.2237
23192
18.2188
23180
18.214
23121
18.2092
23177
18.2043
22979
18.1995
22916
18.1947
23042
18.1899
23135
18.1851
23143
18.1803
22955
18.1755
23163
18.1706
23205
18.1659
23020
18.1611
23082
18.1563
23321
18.1515
22987
18.1467
23146
18.1419
23360
18.1371
23018
18.1324
23068
18.1276
23274
18.1228
23421
18.1181
23014
18.1133
22883
18.1086
22832
18.1038
23220
18.0991
22955
18.0943
23276
18.0896
23216
18.0849
22688
18.0801
22848
18.0754
23123
18.0707
22862
18.066
22907
18.0613
22790
18.0565
22760
18.0518
23212
18.0471
22826
18.0424
22972
18.0377
22738
18.033
23027
18.0284
22750
18.0237
22655
18.019
23028
18.0143
22610
18.0096
23226
18.005
23031
18.0003
22861
17.9956
22913
17.991
22684
17.9863
22817
17.9817
22968
17.977
22856
17.9724
23083
17.9677
22605
17.9631
23010
17.9584
22805
17.9538
23003
17.9492
23069
17.9446
23086
17.9399
22705
17.9353
22655
17.9307
23015
17.9261
22975
17.9215
22873
17.9169
22877
17.9123
22790
17.9077
22835
17.9031
22504
17.8985
22879
17.8939
22932
17.8893
22745
17.8848
22618
17.8802
23031
17.8756
22651
17.8711
23197
17.8665
23001
17.8619
22596
17.8574
22717
17.8528
22951
17.8483
22820
17.8437
22543
17.8392
22675
17.8346
22557
17.8301
22791
17.8256
22497
17.821
22703
17.8165
23064
17.812
22982
17.8075
22818
17.803
22662
17.7984
23091
17.7939
22518
17.7894
22808
17.7849
22992
17.7804
22987
17.7759
22885
17.7714
22852
17.767
22622
17.7625
22625
17.758
22900
17.7535
23070
17.749
23149
17.7446
22681
17.7401
22652
17.7356
22685
17.7312
22556
17.7267
22676
17.7223
22716
17.7178
22712
17.7134
22426
17.7089
22757
17.7045
22636
17.7
22846
17.6956
22724
17.6912
22537
17.6867
22717
17.6823
22787
17.6779
22363
17.6735
22358
17.6691
22803
17.6646
22453
17.6602
22435
17.6558
22696
17.6514
22555
17.647
22610
17.6426
22720
17.6382
22515
17.6339
22429
17.6295
22445
17.6251
22276
17.6207
22655
17.6163
22377
17.612
22382
17.6076
22640
17.6032
22323
17.5989
22222
17.5945
22565
17.5902
22347
17.5858
22460
17.5815
22604
17.5771
22758
17.5728
22178
17.5684
22408
17.5641
22413
17.5598
22704
17.5554
22625
17.5511
22545
17.5468
22545
17.5425
22453
17.5381
22387
17.5338
22246
17.5295
22498
17.5252
22153
17.5209
22477
17.5166
22476
17.5123
22566
17.508
22423
17.5037
22618
17.4994
22636
17.4951
22642
17.4909
22559
17.4866
22731
17.4823
22399
17.478
22710
17.4738
22749
17.4695
22388
17.4652
22490
17.461
22309
17.4567
22501
17.4525
22657
17.4482
22298
17.444
22421
17.4397
22389
17.4355
22269
17.4312
22307
17.427
22473
17.4228
22647
17.4185
22661
17.4143
22579
17.4101
22573
17.4059
22434
17.4016
22375
17.3974
22541
17.3932
22408
17.389
22359
17.3848
22378
17.3806
22439
17.3764
22610
17.3722
22402
17.368
22526
17.3638
22576
17.3596
22580
17.3555
22276
17.3513
22296
17.3471
22547
17.3429
22465
17.3388
22524
17.3346
22389
17.3304
22467
17.3263
22408
17.3221
22477
17.3179
22300
17.3138
22550
17.3096
22595
17.3055
22391
17.3013
22264
17.2972
22443
17.2931
22339
17.2889
22108
17.2848
22401
17.2807
22703
17.2765
22259
17.2724
22320
17.2683
22819
17.2642
22219
17.2601
22704
17.256
22259
17.2518
22233
17.2477
22667
17.2436
22607
17.2395
22266
17.2354
22456
17.2313
22231
17.2273
22483
17.2232
22441
17.2191
22551
17.215
22007
17.2109
22296
17.2068
22365
17.2028
22374
17.1987
22238
17.1946
22054
17.1906
22344
17.1865
22101
17.1824
22138
17.1784
22184
17.1743
22473
17.1703
22070
17.1662
22452
17.1622
21937
17.1581
22295
17.1541
22290
17.1501
22212
17.146
22268
17.142
22626
17.138
22151
17.1339
22672
17.1299
22369
17.1259
22289
17.1219
22189
17.1179
22565
17.1139
22422
17.1098
22485
17.1058
22264
17.1018
22328
17.0978
21982
17.0938
22537
17.0898
22216
17.0859
22152
17.0819
22098
17.0779
21968
17.0739
22304
17.0699
22269
17.0659
22303
17.062
22552
17.058
22355
17.054
22408
17.0501
22281
17.0461
22288
17.0421
22374
17.0382
22201
17.0342
22195
17.0303
21991
17.0263
22335
17.0224
22240
17.0184
22157
17.0145
22287
17.0105
22099
17.0066
22132
17.0027
22276
16.9987
22169
16.9948
22251
16.9909
22426
16.987
21923
16.983
22308
16.9791
22117
16.9752
22448
16.9713
22323
16.9674
22120
16.9635
22108
16.9596
22280
16.9557
22356
16.9518
22478
16.9479
22247
16.944
22278
16.9401
21923
16.9362
22578
16.9323
22437
16.9284
22341
16.9246
22622
16.9207
22328
16.9168
22328
16.9129
22479
16.9091
22433
16.9052
22520
16.9013
22468
16.8975
22458
16.8936
22351
16.8898
22431
16.8859
22488
16.8821
22717
16.8782
22397
16.8744
22459
16.8705
22538
16.8667
22633
16.8629
22904
16.859
22564
16.8552
22963
16.8514
22524
16.8475
22711
16.8437
22867
16.8399
22728
16.8361
22904
16.8323
23001
16.8284
22935
16.8246
22705
16.8208
22894
16.817
23202
16.8132
22749
16.8094
22642
16.8056
22799
16.8018
22908
16.798
22608
16.7942
22611
16.7904
22530
16.7867
22582
16.7829
22302
16.7791
22553
16.7753
22541
16.7715
22639
16.7678
22711
16.764
22336
16.7602
22516
16.7565
22394
16.7527
22381
16.7489
22250
16.7452
22641
16.7414
22156
16.7377
22615
16.7339
22517
16.7302
22592
16.7264
22467
16.7227
22279
16.7189
22593
16.7152
22361
16.7115
22345
16.7077
22579
16.704
22259
16.7003
22241
16.6966
22461
16.6928
22683
16.6891
22472
16.6854
22680
16.6817
22518
16.678
22546
16.6743
22597
16.6706
22376
16.6669
22374
16.6631
22416
16.6594
22343
16.6558
22597
16.6521
22246
16.6484
22753
16.6447
22415
16.641
22690
16.6373
22342
16.6336
22769
16.6299
22577
16.6263
22639
16.6226
22318
16.6189
23026
16.6152
22479
16.6116
22790
16.6079
23074
16.6042
22828
16.6006
22827
16.5969
22635
16.5933
22546
16.5896
22470
16.586
22745
16.5823
22896
16.5787
22953
16.575
22507
16.5714
22667
16.5677
22931
16.5641
22627
16.5605
22776
16.5568
22796
16.5532
22594
16.5496
23026
16.546
22899
16.5423
22871
16.5387
23109
16.5351
22785
16.5315
23084
16.5279
22724
16.5243
23191
16.5206
23087
16.517
23088
16.5134
22945
16.5098
22897
16.5062
23022
16.5026
23373
16.499
23161
16.4955
22998
16.4919
23062
16.4883
23107
16.4847
23211
16.4811
22910
16.4775
23268
16.474
23145
16.4704
23288
16.4668
23295
16.4632
23182
16.4597
23056
16.4561
22878
16.4525
23086
16.449
23296
16.4454
23219
16.4419
23187
16.4383
23034
16.4347
23309
16.4312
23091
16.4276
23498
16.4241
23410
16.4206
23308
16.417
23431
16.4135
23259
16.4099
23062
16.4064
23393
16.4029
23263
16.3993
23047
16.3958
23171
16.3923
22918
16.3888
22855
16.3853
23015
16.3817
22969
16.3782
22696
16.3747
22858
16.3712
22723
16.3677
22591
16.3642
22260
16.3607
22604
16.3572
22595
16.3537
22448
16.3502
22282
16.3467
22537
16.3432
22534
16.3397
22359
16.3362
22535
16.3327
22892
16.3292
22368
16.3258
22804
16.3223
22484
16.3188
22492
16.3153
22614
16.3118
22537
16.3084
22661
16.3049
22987
16.3014
23049
16.298
23164
16.2945
23093
16.2911
23026
16.2876
23084
16.2841
23285
16.2807
23304
16.2772
23465
16.2738
23505
16.2703
23573
16.2669
23632
16.2635
23931
16.26
23798
16.2566
23877
16.2531
24193
16.2497
24069
16.2463
23832
16.2428
23952
16.2394
24075
16.236
24242
16.2326
24484
16.2291
24457
16.2257
24128
16.2223
24592
16.2189
24800
16.2155
24630
16.2121
25048
16.2087
25132
16.2053
25151
16.2019
24861
16.1985
25181
16.1951
25572
16.1917
25704
16.1883
25447
16.1849
25499
16.1815
26010
16.1781
25603
16.1747
25568
16.1713
25656
16.1679
25466
16.1646
25501
16.1612
25320
16.1578
25240
16.1544
25046
16.1511
24922
16.1477
24433
16.1443
24937
16.141
24614
16.1376
24228
16.1342
23919
16.1309
23754
16.1275
23727
16.1242
23257
16.1208
23144
16.1175
23007
16.1141
23282
16.1108
22693
16.1074
22643
16.1041
22735
16.1007
22374
16.0974
22362
16.0941
22477
16.0907
21988
16.0874
22201
16.0841
22229
16.0807
22112
16.0774
21762
16.0741
22005
16.0708
21531
16.0675
21856
16.0641
21376
16.0608
21380
16.0575
21438
16.0542
20962
16.0509
21132
16.0476
21029
16.0443
20768
16.041
21077
16.0377
20614
16.0344
20490
16.0311
20785
16.0278
20186
16.0245
20245
16.0212
20367
16.0179
20259
16.0146
19933
16.0113
20275
16.0081
19775
16.0048
19933
16.0015
19923
15.9982
19771
15.9949
19849
15.9917
19673
15.9884
20032
15.9851
19677
15.9819
19801
15.9786
19637
15.9753
19822
15.9721
19629
15.9688
19609
15.9656
20146
15.9623
19956
15.9591
19839
15.9558
19817
15.9526
20068
15.9493
20291
15.9461
20198
15.9428
20409
15.9396
20497
15.9363
20619
15.9331
20935
15.9299
21215
15.9266
21394
15.9234
21654
15.9202
21935
15.9169
22446
15.9137
22846
15.9105
22922
15.9073
23698
15.9041
23891
15.9008
24205
15.8976
24609
15.8944
25568
15.8912
25757
15.888
26132
15.8848
26914
15.8816
27626
15.8784
27481
15.8752
28617
15.872
29036
15.8688
29471
15.8656
29896
15.8624
30552
15.8592
31067
15.856
30968
15.8528
31238
15.8496
31621
15.8464
31492
15.8433
31652
15.8401
31568
15.8369
31291
15.8337
30625
15.8306
30940
15.8274
30212
15.8242
29819
15.821
29408
15.8179
28953
15.8147
28718
15.8115
28032
15.8084
27698
15.8052
26912
15.8021
26689
15.7989
26178
15.7958
25513
15.7926
25396
15.7895
24595
15.7863
24558
15.7832
23777
15.78
23532
15.7769
23597
15.7737
23067
15.7706
22697
15.7675
22465
15.7643
22399
15.7612
21972
15.7581
21813
15.7549
21403
15.7518
21320
15.7487
21124
15.7456
20901
15.7424
20588
15.7393
20610
15.7362
20401
15.7331
20119
15.73
19947
15.7268
19742
15.7237
19567
15.7206
19384
15.7175
19042
15.7144
18874
15.7113
18862
15.7082
18689
15.7051
18398
15.702
18286
15.6989
17957
15.6958
17704
15.6927
17422
15.6896
17467
15.6865
17279
15.6835
16811
15.6804
16832
15.6773
16675
15.6742
16740
15.6711
16099
15.6681
16048
15.665
15952
15.6619
15930
15.6588
15503
15.6558
15361
15.6527
15254
15.6496
14767
15.6466
14851
15.6435
15011
15.6404
14676
15.6374
14346
15.6343
14694
15.6313
14180
15.6282
14269
15.6252
14427
15.6221
13970
15.6191
13855
15.616
13912
15.613
13865
15.6099
13691
15.6069
13678
15.6038
13563
15.6008
13420
15.5978
13436
15.5947
13484
15.5917
13523
15.5887
13640
15.5856
13385
15.5826
13567
15.5796
13570
15.5766
13411
15.5735
13223
15.5705
13266
15.5675
13305
15.5645
13295
15.5615
13355
15.5584
13364
15.5554
13409
15.5524
13354
15.5494
13270
15.5464
13459
15.5434
13421
15.5404
13398
15.5374
13314
15.5344
13302
15.5314
13463
15.5284
13557
15.5254
13250
15.5224
13173
15.5194
13529
15.5164
13223
15.5134
13479
15.5105
13205
15.5075
13288
15.5045
13194
15.5015
13195
15.4985
13239
15.4956
13364
15.4926
13418
15.4896
13084
15.4866
13337
15.4837
13193
15.4807
13311
15.4777
13172
15.4748
13337
15.4718
13469
15.4688
13344
15.4659
13169
15.4629
13342
15.46
13269
15.457
13260
15.454
13352
15.4511
13210
15.4481
13260
15.4452
13355
15.4423
13215
15.4393
13138
15.4364
13464
15.4334
13300
15.4305
13285
15.4275
13076
15.4246
13314
15.4217
13381
15.4187
13359
15.4158
12994
15.4129
13131
15.4099
13089
15.407
13260
15.4041
13228
15.4012
13000
15.3983
13184
15.3953
13216
15.3924
13191
15.3895
12981
15.3866
13288
15.3837
13173
15.3808
13163
15.3778
13197
15.3749
13150
15.372
13305
15.3691
13158
15.3662
13446
15.3633
13309
15.3604
13170
15.3575
13104
15.3546
12979
15.3517
13057
15.3488
13178
15.3459
13283
15.3431
13195
15.3402
12922
15.3373
12956
15.3344
12952
15.3315
13287
15.3286
13201
15.3257
13031
15.3229
13204
15.32
13066
15.3171
12953
15.3142
12978
15.3114
13390
15.3085
13024
15.3056
13297
15.3028
13146
15.2999
13227
15.297
13058
15.2942
13249
15.2913
12988
15.2884
13212
15.2856
13004
15.2827
13288
15.2799
13192
15.277
13190
15.2742
13076
15.2713
13161
15.2685
13084
15.2656
12958
15.2628
13006
15.2599
13254
15.2571
13301
15.2543
13219
15.2514
12850
15.2486
13191
15.2457
13146
15.2429
13157
15.2401
13149
15.2372
13170
15.2344
13162
15.2316
13417
15.2288
12932
15.2259
12979
15.2231
13049
15.2203
13252
15.2175
13109
15.2147
13213
15.2118
13107
15.209
12998
15.2062
13234
15.2034
13165
15.2006
12922
15.1978
13040
15.195
13430
15.1922
13191
15.1894
12892
15.1866
12924
15.1838
12991
15.181
13031
15.1782
13168
15.1754
12903
15.1726
13100
15.1698
12963
15.167
13215
15.1642
13055
15.1614
12804
15.1586
13156
15.1558
13025
15.153
13003
15.1503
13168
15.1475
13011
15.1447
12999
15.1419
12860
15.1391
13042
15.1364
13201
15.1336
13057
15.1308
13084
15.1281
12968
15.1253
12823
15.1225
12959
15.1198
12992
15.117
12990
15.1142
13015
15.1115
13083
15.1087
12905
15.1059
13001
15.1032
12904
15.1004
13006
15.0977
13049
15.0949
13245
15.0922
13092
15.0894
13137
15.0867
12992
15.0839
13071
15.0812
12962
15.0784
12869
15.0757
12823
15.073
12959
15.0702
13062
15.0675
12981
15.0648
12786
15.062
13060
15.0593
13062
15.0566
13003
15.0538
12962
15.0511
12977
15.0484
12725
15.0456
12980
15.0429
12987
15.0402
12966
15.0375
13141
15.0348
13045
15.032
13058
15.0293
13082
15.0266
13043
15.0239
13143
15.0212
12964
15.0185
13098
15.0158
13370
15.0131
13082
15.0103
13227
15.0076
13098
15.0049
13003
15.0022
13070
14.9995
13212
14.9968
13391
14.9941
13343
14.9914
13259
14.9887
13350
14.9861
13365
14.9834
13327
14.9807
13504
14.978
13397
14.9753
13601
14.9726
13470
14.9699
13635
14.9672
13439
14.9646
13618
14.9619
13566
14.9592
13734
14.9565
13649
14.9538
13394
14.9512
13456
14.9485
13613
14.9458
13652
14.9432
13516
14.9405
13488
14.9378
13538
14.9352
13373
14.9325
13479
14.9298
13261
14.9272
13227
14.9245
13169
14.9219
13090
14.9192
13083
14.9165
13038
14.9139
13183
14.9112
13160
14.9086
13011
14.9059
12969
14.9033
12965
14.9006
13053
14.898
12959
14.8953
12873
14.8927
12936
14.8901
13133
14.8874
12983
14.8848
13170
14.8821
13089
14.8795
12813
14.8769
13121
14.8742
12984
14.8716
12951
14.869
13053
14.8663
12994
14.8637
12917
14.8611
13041
14.8585
13178
14.8558
12960
14.8532
13123
14.8506
13229
14.848
13079
14.8454
13001
14.8427
13169
14.8401
12903
14.8375
13040
14.8349
13137
14.8323
12938
14.8297
13005
14.8271
13007
14.8245
12976
14.8219
12840
14.8193
13097
14.8167
12914
14.8141
13093
14.8115
12770
14.8089
12814
14.8063
12775
14.8037
13067
14.8011
13238
14.7985
13087
14.7959
12840
14.7933
12828
14.7907
13114
14.7881
12902
14.7855
12967
14.7829
13052
14.7804
13011
14.7778
12953
14.7752
12821
14.7726
12978
14.77
12933
14.7675
13136
14.7649
12915
14.7623
12962
14.7597
13107
14.7572
12955
14.7546
12804
14.752
13101
14.7495
12794
14.7469
12992
14.7443
12976
14.7418
12665
14.7392
12897
14.7366
12941
14.7341
13127
14.7315
12787
14.729
12897
14.7264
12948
14.7239
12728
14.7213
12899
14.7187
12958
14.7162
13005
14.7136
12937
14.7111
12959
14.7086
12971
14.706
12839
14.7035
13096
14.7009
12643
14.6984
12873
14.6958
12772
14.6933
12961
14.6908
12847
14.6882
12747
14.6857
12962
14.6832
13008
14.6806
13063
14.6781
12949
14.6756
12805
14.673
12927
14.6705
13188
14.668
12850
14.6655
12853
14.6629
12769
14.6604
12975
14.6579
13033
14.6554
12740
14.6529
12954
14.6504
13213
14.6478
12922
14.6453
13050
14.6428
12874
14.6403
13010
14.6378
13030
14.6353
13023
14.6328
12823
14.6303
12852
14.6278
13095
14.6253
13082
14.6228
12948
14.6203
13021
14.6178
12956
14.6153
12917
14.6128
12944
14.6103
12904
14.6078
12839
14.6053
12985
14.6028
12922
14.6003
13027
14.5978
12982
14.5953
12916
14.5928
12880
14.5903
13084
14.5879
12788
14.5854
12918
14.5829
12981
14.5804
12768
14.5779
12973
14.5755
13035
14.573
12970
14.5705
12912
14.568
12879
14.5656
12738
14.5631
12935
14.5606
12950
14.5582
13064
14.5557
12936
14.5532
12948
14.5508
12866
14.5483
12798
14.5458
13007
14.5434
12974
14.5409
13076
14.5384
12979
14.536
12865
14.5335
13289
14.5311
12868
14.5286
12925
14.5262
12749
14.5237
12940
14.5213
12711
14.5188
12840
14.5164
12969
14.5139
12891
14.5115
13045
14.509
12960
14.5066
13081
14.5042
13023
14.5017
12981
14.4993
12940
14.4968
13011
14.4944
12868
14.492
12823
14.4895
12847
14.4871
12884
14.4847
12876
14.4822
12955
14.4798
12898
14.4774
13056
14.4749
12963
14.4725
12879
14.4701
12807
14.4677
12774
14.4653
12757
14.4628
12993
14.4604
12951
14.458
13134
14.4556
13201
14.4532
13152
14.4507
12965
14.4483
12898
14.4459
12903
14.4435
12907
14.4411
13028
14.4387
12935
14.4363
12849
14.4339
12936
14.4315
13000
14.4291
12910
14.4267
13043
14.4243
12902
14.4219
13128
14.4195
12870
14.4171
12826
14.4147
13152
14.4123
12923
14.4099
12948
14.4075
12865
14.4051
13126
14.4027
12881
14.4003
12916
14.3979
12922
14.3955
13165
14.3932
12990
14.3908
12968
14.3884
13127
14.386
12917
14.3836
12664
14.3812
12860
14.3789
13023
14.3765
13232
14.3741
12904
14.3717
13002
14.3694
13038
14.367
12786
14.3646
13041
14.3622
13081
14.3599
13070
14.3575
12948
14.3551
13220
14.3528
13079
14.3504
12928
14.348
12931
14.3457
13025
14.3433
12982
14.341
12980
14.3386
12903
14.3362
12907
14.3339
12918
14.3315
12933
14.3292
13124
14.3268
13195
14.3245
13010
14.3221
12783
14.3198
12942
14.3174
13124
14.3151
13045
14.3127
12952
14.3104
13058
14.308
12754
14.3057
13146
14.3034
12901
14.301
13037
14.2987
12973
14.2963
13155
14.294
13016
14.2917
13041
14.2893
13187
14.287
13215
14.2847
13258
14.2823
12972
14.28
13067
14.2777
12951
14.2753
13025
14.273
13078
14.2707
13186
14.2684
13021
14.266
12988
14.2637
13089
14.2614
12919
14.2591
12939
14.2568
13016
14.2544
12920
14.2521
13150
14.2498
13270
14.2475
13039
14.2452
12949
14.2429
13017
14.2406
13149
14.2383
12949
14.2359
13005
14.2336
13039
14.2313
13129
14.229
13275
14.2267
12953
14.2244
12945
14.2221
13238
14.2198
13118
14.2175
12955
14.2152
13103
14.2129
13251
14.2106
12878
14.2083
13154
14.206
13113
14.2037
13052
14.2015
13141
14.1992
13046
14.1969
13212
14.1946
12860
14.1923
13040
14.19
13082
14.1877
13099
14.1854
12858
14.1832
13087
14.1809
13168
14.1786
12999
14.1763
13096
14.174
12995
14.1718
13097
14.1695
12925
14.1672
13051
14.1649
12947
14.1627
13106
14.1604
12965
14.1581
12909
14.1558
13002
14.1536
13089
14.1513
13135
14.149
12920
14.1468
13198
14.1445
12923
14.1422
12855
14.14
12830
14.1377
12928
14.1355
13240
14.1332
13148
14.1309
13172
14.1287
13133
14.1264
13208
14.1242
12820
14.1219
13177
14.1197
13079
14.1174
13046
14.1152
13159
14.1129
13272
14.1107
12917
14.1084
13083
14.1062
13051
14.1039
13049
14.1017
12934
14.0995
13089
14.0972
12970
14.095
13190
14.0927
13119
14.0905
12994
14.0883
12917
14.086
13274
14.0838
12925
14.0815
13199
14.0793
13145
14.0771
13159
14.0748
13315
14.0726
12975
14.0704
12970
14.0682
13137
14.0659
12913
14.0637
13053
14.0615
13046
14.0593
12806
14.057
13177
14.0548
13262
14.0526
13100
14.0504
13218
14.0482
13092
14.0459
13186
14.0437
13162
14.0415
12909
14.0393
12929
14.0371
13243
14.0349
13213
14.0327
13292
14.0304
13153
14.0282
13198
14.026
13176
14.0238
13210
14.0216
13156
14.0194
13201
14.0172
13202
14.015
13001
14.0128
12960
14.0106
13099
14.0084
13005
14.0062
13076
14.004
13190
14.0018
13282
13.9996
13190
13.9974
12851
13.9952
13077
13.993
13047
13.9908
13334
13.9887
13085
13.9865
13327
13.9843
13290
13.9821
13286
13.9799
13200
13.9777
12982
13.9755
13441
13.9734
13340
13.9712
13337
13.969
13101
13.9668
13039
13.9646
13183
13.9625
13244
13.9603
13194
13.9581
13122
13.9559
13413
13.9537
13316
13.9516
13477
13.9494
13474
13.9472
13358
13.9451
13319
13.9429
13500
13.9407
13544
13.9386
13582
13.9364
13671
13.9342
13480
13.9321
13413
13.9299
13638
13.9277
13649
13.9256
13692
13.9234
13758
13.9213
13624
13.9191
13830
13.9169
13784
13.9148
13711
13.9126
13715
13.9105
13572
13.9083
13303
13.9062
13542
13.904
13382
13.9019
13469
13.8997
13573
13.8976
13176
13.8954
13340
13.8933
13314
13.8911
13156
13.889
13306
13.8869
12993
13.8847
13307
13.8826
13107
13.8804
13183
13.8783
12916
13.8762
13176
13.874
13064
13.8719
13201
13.8697
13423
13.8676
13207
13.8655
12828
13.8633
13114
13.8612
12999
13.8591
13006
13.857
13042
13.8548
13314
13.8527
13049
13.8506
13069
13.8484
13088
13.8463
13098
13.8442
13027
13.8421
12865
13.84
12883
13.8378
13067
13.8357
13010
13.8336
13136
13.8315
13119
13.8294
13208
13.8273
13236
13.8251
13014
13.823
13033
13.8209
12829
13.8188
13032
13.8167
13050
13.8146
13006
13.8125
13015
13.8104
13047
13.8083
13149
13.8062
12983
13.804
13134
13.8019
12946
13.7998
13101
13.7977
13081
13.7956
13062
13.7935
13126
13.7914
13186
13.7893
12873
13.7872
13121
13.7851
13069
13.7831
13014
13.781
13217
13.7789
13112
13.7768
13349
13.7747
13364
13.7726
13115
13.7705
13268
13.7684
13314
13.7663
13061
13.7642
13326
13.7622
13135
13.7601
13266
13.758
13029
13.7559
13037
13.7538
13006
13.7517
13294
13.7497
13139
13.7476
13176
13.7455
13375
13.7434
13407
13.7413
13288
13.7393
13159
13.7372
13149
13.7351
13363
13.7331
13302
13.731
13093
13.7289
13311
13.7268
13205
13.7248
13101
13.7227
13371
13.7206
13059
13.7186
13193
13.7165
13181
13.7144
13057
13.7124
13253
13.7103
13256
13.7083
13231
13.7062
12943
13.7041
13322
13.7021
12921
13.7
13235
13.698
13296
13.6959
13217
13.6939
13191
13.6918
13020
13.6897
13167
13.6877
13246
13.6856
13139
13.6836
13245
13.6815
13309
13.6795
13108
13.6774
12973
13.6754
13192
13.6734
13121
13.6713
13029
13.6693
13009
13.6672
13079
13.6652
12909
13.6631
13179
13.6611
12978
13.6591
13146
13.657
13098
13.655
12943
13.6529
13016
13.6509
13176
13.6489
13022
13.6468
12878
13.6448
13118
13.6428
13104
13.6407
12906
13.6387
13035
13.6367
13218
13.6347
13148
13.6326
13099
13.6306
12766
13.6286
13022
13.6266
12802
13.6245
12744
13.6225
13065
13.6205
13059
13.6185
12894
13.6164
12885
13.6144
12749
13.6124
12839
13.6104
12727
13.6084
12620
13.6064
13064
13.6043
12835
13.6023
12592
13.6003
12857
13.5983
12845
13.5963
12648
13.5943
12798
13.5923
12785
13.5903
12753
13.5883
12726
13.5863
12639
13.5842
12656
13.5822
12771
13.5802
12829
13.5782
12920
13.5762
12627
13.5742
12895
13.5722
12385
13.5702
12506
13.5682
12761
13.5662
12728
13.5642
12678
13.5622
12560
13.5602
12641
13.5583
12555
13.5563
12679
13.5543
12582
13.5523
12800
13.5503
12684
13.5483
12633
13.5463
12656
13.5443
12842
13.5423
12603
13.5403
12811
13.5384
12848
13.5364
13046
13.5344
13184
13.5324
13026
13.5304
13252
13.5284
13351
13.5265
13395
13.5245
13367
13.5225
13530
13.5205
13576
13.5186
13780
13.5166
13766
13.5146
13957
13.5126
13991
13.5107
14059
13.5087
14147
13.5067
14073
13.5047
14338
13.5028
14382
13.5008
14679
13.4988
14563
13.4969
14609
13.4949
14874
13.4929
14642
13.491
14718
13.489
14795
13.487
14751
13.4851
14944
13.4831
14804
13.4812
14901
13.4792
14957
13.4772
14829
13.4753
14817
13.4733
14979
13.4714
14915
13.4694
14991
13.4675
14836
13.4655
14554
13.4635
14700
13.4616
14507
13.4596
14528
13.4577
14435
13.4557
14437
13.4538
14081
13.4518
14214
13.4499
14091
13.448
14229
13.446
13967
13.4441
13650
13.4421
13496
13.4402
13594
13.4382
13309
13.4363
13399
13.4344
13401
13.4324
13348
13.4305
13035
13.4285
13315
13.4266
12991
13.4247
12851
13.4227
12825
13.4208
12738
13.4189
12730
13.4169
12376
13.415
12615
13.4131
12442
13.4111
12455
13.4092
12342
13.4073
12293
13.4054
12400
13.4034
12273
13.4015
12249
13.3996
11952
13.3977
12119
13.3957
11990
13.3938
11811
13.3919
11892
13.39
11713
13.388
11705
13.3861
11753
13.3842
11414
13.3823
11424
13.3804
11556
13.3785
11480
13.3765
11290
13.3746
11150
13.3727
11429
13.3708
10914
13.3689
10730
13.367
10874
13.3651
10995
13.3632
10961
13.3612
10558
13.3593
10487
13.3574
10515
13.3555
10651
13.3536
10443
13.3517
10174
13.3498
10078
13.3479
10070
13.346
10026
13.3441
9910
13.3422
9893
13.3403
9763
13.3384
9827
13.3365
9690
13.3346
9606
13.3327
9416
13.3308
9384
13.3289
9323
13.327
9155
13.3251
9031
13.3232
9015
13.3214
9052
13.3195
8887
13.3176
8915
13.3157
8968
13.3138
8796
13.3119
8836
13.31
8895
13.3081
8781
13.3063
8935
13.3044
8589
13.3025
8649
13.3006
8619
13.2987
8614
13.2968
8660
13.295
8722
13.2931
8909
13.2912
8666
13.2893
8896
13.2874
8954
13.2856
8938
13.2837
9332
13.2818
9375
13.2799
9600
13.2781
10141
13.2762
10400
13.2743
11133
13.2725
11831
13.2706
12824
13.2687
13858
13.2668
15464
13.265
16930
13.2631
18941
13.2612
20938
13.2594
23256
13.2575
25984
13.2557
28415
13.2538
30896
13.2519
33101
13.2501
35128
13.2482
37160
13.2463
38550
13.2445
39431
13.2426
39798
13.2408
39068
13.2389
37663
13.2371
36414
13.2352
34398
13.2333
32191
13.2315
29341
13.2296
26390
13.2278
24177
13.2259
21782
13.2241
19461
13.2222
17447
13.2204
15660
13.2185
14294
13.2167
12877
13.2148
12159
13.213
11261
13.2112
10615
13.2093
10004
13.2075
9557
13.2056
9613
13.2038
9212
13.2019
8876
13.2001
8816
13.1983
8900
13.1964
8700
13.1946
8494
13.1927
8663
13.1909
8537
13.1891
8677
13.1872
8599
13.1854
8663
13.1836
9064
13.1817
9030
13.1799
9158
13.1781
9295
13.1762
9675
13.1744
9847
13.1726
10205
13.1708
10305
13.1689
10602
13.1671
10453
13.1653
10787
13.1635
10889
13.1616
10934
13.1598
10992
13.158
11086
13.1562
10960
13.1543
10818
13.1525
11045
13.1507
10551
13.1489
10376
13.1471
10331
13.1452
10240
13.1434
9903
13.1416
9682
13.1398
9330
13.138
9012
13.1362
8962
13.1344
8685
13.1325
8402
13.1307
8275
13.1289
8034
13.1271
8005
13.1253
7654
13.1235
7689
13.1217
7549
13.1199
7513
13.1181
7356
13.1163
7385
13.1145
7453
13.1127
7175
13.1109
7382
13.1091
7312
13.1073
7295
13.1055
7222
13.1037
7272
13.1019
7290
13.1001
7152
13.0983
7153
13.0965
7045
13.0947
7306
13.0929
7336
13.0911
7362
13.0893
7318
13.0875
7504
13.0857
7523
13.0839
7306
13.0821
7391
13.0803
7372
13.0785
7340
13.0767
7499
13.0749
7397
13.0732
7340
13.0714
7353
13.0696
7338
13.0678
7346
13.066
7271
13.0642
7428
13.0624
7364
13.0607
7229
13.0589
7454
13.0571
7308
13.0553
7273
13.0535
7306
13.0518
7234
13.05
7189
13.0482
7268
13.0464
7185
13.0447
7227
13.0429
7122
13.0411
7326
13.0393
7231
13.0376
7102
13.0358
7221
13.034
7129
13.0322
6967
13.0305
7107
13.0287
7106
13.0269
7053
13.0252
7050
13.0234
7007
13.0216
7327
13.0199
7252
13.0181
7180
13.0163
7032
13.0146
7098
13.0128
7156
13.011
6851
13.0093
7062
13.0075
7143
13.0058
6949
13.004
6971
13.0022
7099
13.0005
7161
12.9987
6959
12.997
6905
12.9952
6992
12.9935
7005
12.9917
6921
12.9899
7049
12.9882
7038
12.9864
7003
12.9847
7053
12.9829
6927
12.9812
6970
12.9794
6984
12.9777
7068
12.9759
6859
12.9742
7074
12.9724
7072
12.9707
7011
12.969
6939
12.9672
6994
12.9655
6836
12.9637
7157
12.962
7047
12.9602
7014
12.9585
6927
12.9568
6855
12.955
7013
12.9533
6765
12.9515
6971
12.9498
6875
12.9481
6884
12.9463
7027
12.9446
6769
12.9429
7015
12.9411
6839
12.9394
6943
12.9377
6988
12.9359
6891
12.9342
6893
12.9325
6862
12.9307
7013
12.929
6868
12.9273
6908
12.9256
7015
12.9238
7015
12.9221
6934
12.9204
7038
12.9186
6784
12.9169
6899
12.9152
7008
12.9135
6883
12.9118
6899
12.91
6773
12.9083
6988
12.9066
6948
12.9049
6873
12.9032
6850
12.9014
6818
12.8997
6943
12.898
6934
12.8963
6970
12.8946
6859
12.8929
7055
12.8911
6804
12.8894
6967
12.8877
6971
12.886
6921
12.8843
6900
12.8826
6980
12.8809
7057
12.8792
7014
12.8774
7050
12.8757
7079
12.874
7012
12.8723
6971
12.8706
7161
12.8689
6988
12.8672
6982
12.8655
7034
12.8638
6994
12.8621
7009
12.8604
6997
12.8587
7061
12.857
7123
12.8553
7126
12.8536
7033
12.8519
7114
12.8502
7012
12.8485
7086
12.8468
7093
12.8451
7086
12.8434
7109
12.8417
7044
12.84
7043
12.8383
7144
12.8366
7018
12.835
7004
12.8333
7098
12.8316
7075
12.8299
7181
12.8282
6999
12.8265
6948
12.8248
6959
12.8231
7049
12.8214
6952
12.8198
6983
12.8181
7167
12.8164
7069
12.8147
7017
12.813
7072
12.8113
7060
12.8097
6912
12.808
7053
12.8063
6840
12.8046
7006
12.8029
7037
12.8013
6890
12.7996
6912
12.7979
6862
12.7962
6779
12.7945
6918
12.7929
6834
12.7912
6907
12.7895
6801
12.7878
6890
12.7862
6823
12.7845
6815
12.7828
6957
12.7812
6975
12.7795
6899
12.7778
7013
12.7762
6888
12.7745
6889
12.7728
7005
12.7712
6809
12.7695
6910
12.7678
6683
12.7662
6754
12.7645
6750
12.7628
6918
12.7612
6975
12.7595
6798
12.7578
6779
12.7562
6876
12.7545
6782
12.7529
6917
12.7512
6734
12.7495
6827
12.7479
6692
12.7462
6890
12.7446
6830
12.7429
6666
12.7413
6993
12.7396
6881
12.738
6917
12.7363
6671
12.7346
6695
12.733
6680
12.7313
6717
12.7297
6678
12.728
6879
12.7264
6786
12.7247
6776
12.7231
6796
12.7215
6755
12.7198
6781
12.7182
6937
12.7165
6864
12.7149
6884
12.7132
6745
12.7116
6717
12.7099
6836
12.7083
6822
12.7067
6846
12.705
6554
12.7034
6753
12.7017
7007
12.7001
6897
12.6985
6925
12.6968
6865
12.6952
6699
12.6935
6834
12.6919
6796
12.6903
6723
12.6886
6796
12.687
6807
12.6854
6916
12.6837
6677
12.6821
6758
12.6805
6866
12.6788
6895
12.6772
6945
12.6756
6783
12.674
6807
12.6723
6844
12.6707
6864
12.6691
6845
12.6674
6927
12.6658
6801
12.6642
6866
12.6626
6789
12.6609
6884
12.6593
6715
12.6577
6898
12.6561
6853
12.6545
6801
12.6528
7003
12.6512
6729
12.6496
6787
12.648
6688
12.6464
6833
12.6447
6881
12.6431
6778
12.6415
6776
12.6399
6898
12.6383
6761
12.6367
6696
12.635
6872
12.6334
6708
12.6318
6654
12.6302
6857
12.6286
6745
12.627
6879
12.6254
6725
12.6238
6805
12.6222
6898
12.6205
6691
12.6189
6748
12.6173
6649
12.6157
6830
12.6141
6873
12.6125
6759
12.6109
6699
12.6093
6729
12.6077
7002
12.6061
6740
12.6045
6734
12.6029
6860
12.6013
6859
12.5997
6827
12.5981
6724
12.5965
6751
12.5949
6683
12.5933
6831
12.5917
6584
12.5901
6678
12.5885
6734
12.5869
6725
12.5853
6820
12.5837
6859
12.5821
6708
12.5805
6767
12.5789
6733
12.5774
6714
12.5758
6731
12.5742
6762
12.5726
6761
12.571
6765
12.5694
6815
12.5678
6869
12.5662
6770
12.5646
6835
12.5631
6873
12.5615
6782
12.5599
6788
12.5583
6940
12.5567
6718
12.5551
6819
12.5535
6803
12.552
6626
12.5504
6816
12.5488
6680
12.5472
6775
12.5456
6703
12.5441
6842
12.5425
6707
12.5409
6802
12.5393
6784
12.5377
6833
12.5362
6862
12.5346
6702
12.533
6733
12.5314
6658
12.5299
6745
12.5283
6623
12.5267
6621
12.5252
6604
12.5236
6809
12.522
6543
12.5204
6737
12.5189
6699
12.5173
6697
12.5157
6670
12.5142
6712
12.5126
6857
12.511
6716
12.5095
6773
12.5079
6627
12.5063
6618
12.5048
6633
12.5032
6636
12.5016
6714
12.5001
6731
12.4985
6909
12.497
6696
12.4954
6732
12.4938
6671
12.4923
6794
12.4907
6731
12.4892
6750
12.4876
6677
12.486
6701
12.4845
6670
12.4829
6581
12.4814
6606
12.4798
6820
12.4783
6597
12.4767
6839
12.4752
6719
12.4736
6682
12.472
6887
12.4705
6703
12.4689
6828
12.4674
6661
12.4658
6628
12.4643
6681
12.4627
6643
12.4612
6636
12.4596
6721
12.4581
6581
12.4566
6851
12.455
6583
12.4535
6811
12.4519
6774
12.4504
6759
12.4488
6725
12.4473
6751
12.4457
6790
12.4442
6723
12.4427
6703
12.4411
6701
12.4396
6558
12.438
6709
12.4365
6853
12.435
6604
12.4334
6820
12.4319
6713
12.4304
6747
12.4288
6702
12.4273
6748
12.4257
6716
12.4242
6791
12.4227
6700
12.4211
6616
12.4196
6764
12.4181
6723
12.4165
6745
12.415
6759
12.4135
6628
12.412
6679
12.4104
6572
12.4089
6708
12.4074
6716
12.4058
6563
12.4043
6673
12.4028
6672
12.4013
6754
12.3997
6678
12.3982
6733
12.3967
6691
12.3952
6699
12.3936
6764
12.3921
6710
12.3906
6614
12.3891
6721
12.3876
6722
12.386
6797
12.3845
6554
12.383
6756
12.3815
6747
12.38
6725
12.3784
6870
12.3769
6757
12.3754
6728
12.3739
6707
12.3724
6700
12.3709
6833
12.3693
6652
12.3678
6634
12.3663
6736
12.3648
6748
12.3633
6573
12.3618
6605
12.3603
6637
12.3588
6782
12.3572
6703
12.3557
6728
12.3542
6708
12.3527
6647
12.3512
6801
12.3497
6663
12.3482
6834
12.3467
6772
12.3452
6787
12.3437
6783
12.3422
6766
12.3407
6803
12.3392
6637
12.3377
6605
12.3362
6765
12.3347
6651
12.3332
6645
12.3317
6625
12.3302
6661
12.3287
6602
12.3272
6759
12.3257
6749
12.3242
6672
12.3227
6726
12.3212
6776
12.3197
6718
12.3182
6679
12.3167
6662
12.3152
6658
12.3137
6737
12.3122
6616
12.3107
6674
12.3092
6636
12.3077
6848
12.3062
6757
12.3048
6622
12.3033
6638
12.3018
6633
12.3003
6581
12.2988
6588
12.2973
6561
12.2958
6631
12.2943
6593
12.2928
6764
12.2914
6704
12.2899
6612
12.2884
6683
12.2869
6842
12.2854
6623
12.2839
6655
12.2825
6558
12.281
6678
12.2795
6773
12.278
6609
12.2765
6683
12.275
6721
12.2736
6533
12.2721
6754
12.2706
6512
12.2691
6588
12.2677
6589
12.2662
6831
12.2647
6691
12.2632
6722
12.2618
6712
12.2603
6655
12.2588
6806
12.2573
6614
12.2559
6762
12.2544
6577
12.2529
6582
12.2514
6607
12.25
6620
12.2485
6750
12.247
6614
12.2456
6679
12.2441
6803
12.2426
6622
12.2412
6787
12.2397
6606
12.2382
6769
12.2368
6595
12.2353
6730
12.2338
6772
12.2324
6607
12.2309
6677
12.2294
6640
12.228
6738
12.2265
6627
12.225
6839
12.2236
6512
12.2221
6693
12.2207
6743
12.2192
6628
12.2177
6701
12.2163
6903
12.2148
6824
12.2134
6706
12.2119
6744
12.2105
6645
12.209
6672
12.2075
6627
12.2061
6645
12.2046
6780
12.2032
6868
12.2017
6718
12.2003
6603
12.1988
6862
12.1974
6471
12.1959
6769
12.1945
6700
12.193
6776
12.1916
6660
12.1901
6847
12.1887
6630
12.1872
6884
12.1858
6751
12.1843
6611
12.1829
6798
12.1814
6838
12.18
6859
12.1785
6758
12.1771
6738
12.1757
6778
12.1742
6707
12.1728
6674
12.1713
6862
12.1699
6925
12.1684
6899
12.167
6776
12.1656
6957
12.1641
6914
12.1627
6885
12.1612
6735
12.1598
6963
12.1584
6902
12.1569
6766
12.1555
6784
12.1541
6758
12.1526
6700
12.1512
6576
12.1497
6733
12.1483
6815
12.1469
6683
12.1454
6570
12.144
6648
12.1426
6726
12.1411
6791
12.1397
6491
12.1383
6736
12.1369
6737
12.1354
6673
12.134
6602
12.1326
6635
12.1311
6737
12.1297
6567
12.1283
6620
12.1269
6764
12.1254
6564
12.124
6616
12.1226
6512
12.1211
6613
12.1197
6603
12.1183
6516
12.1169
6701
12.1155
6553
12.114
6432
12.1126
6566
12.1112
6561
12.1098
6626
12.1083
6534
12.1069
6649
12.1055
6645
12.1041
6541
12.1027
6699
12.1013
6686
12.0998
6463
12.0984
6526
12.097
6677
12.0956
6628
12.0942
6801
12.0928
6559
12.0913
6592
12.0899
6529
12.0885
6602
12.0871
6681
12.0857
6625
12.0843
6563
12.0829
6636
12.0815
6629
12.08
6327
12.0786
6510
12.0772
6517
12.0758
6556
12.0744
6591
12.073
6654
12.0716
6683
12.0702
6574
12.0688
6433
12.0674
6653
12.066
6575
12.0646
6667
12.0632
6698
12.0618
6575
12.0603
6541
12.0589
6410
12.0575
6506
12.0561
6578
12.0547
6473
12.0533
6560
12.0519
6487
12.0505
6649
12.0491
6599
12.0477
6664
12.0463
6364
12.0449
6516
12.0435
6682
12.0421
6623
12.0407
6627
12.0394
6525
12.038
6557
12.0366
6635
12.0352
6566
12.0338
6509
12.0324
6460
12.031
6641
12.0296
6444
12.0282
6536
12.0268
6684
12.0254
6434
12.024
6619
12.0226
6655
12.0212
6671
12.0199
6610
12.0185
6518
12.0171
6447
12.0157
6538
12.0143
6622
12.0129
6501
12.0115
6573
12.0101
6498
12.0088
6595
12.0074
6573
12.006
6462
12.0046
6637
12.0032
6594
12.0018
6644
12.0005
6515
11.9991
6400
11.9977
6509
11.9963
6554
11.9949
6626
11.9935
6572
11.9922
6572
11.9908
6603
11.9894
6503
11.988
6735
11.9867
6724
11.9853
6625
11.9839
6545
11.9825
6460
11.9811
6713
11.9798
6583
11.9784
6592
11.977
6525
11.9756
6600
11.9743
6613
11.9729
6602
11.9715
6601
11.9702
6650
11.9688
6753
11.9674
6472
11.966
6500
11.9647
6539
11.9633
6701
11.9619
6631
11.9606
6743
11.9592
6577
11.9578
6632
11.9565
6839
11.9551
6650
11.9537
6647
11.9524
6537
11.951
6571
11.9496
6484
11.9483
6591
11.9469
6447
11.9455
6581
11.9442
6469
11.9428
6505
11.9414
6487
11.9401
6696
11.9387
6559
11.9374
6621
11.936
6489
11.9346
6596
11.9333
6621
11.9319
6533
11.9306
6555
11.9292
6657
11.9278
6652
11.9265
6573
11.9251
6580
11.9238
6654
11.9224
6576
11.9211
6615
11.9197
6507
11.9184
6505
11.917
6575
11.9156
6550
11.9143
6654
11.9129
6629
11.9116
6591
11.9102
6462
11.9089
6641
11.9075
6568
11.9062
6581
11.9048
6345
11.9035
6619
11.9021
6512
11.9008
6526
11.8994
6677
11.8981
6675
11.8967
6484
11.8954
6632
11.894
6566
11.8927
6667
11.8914
6698
11.89
6539
11.8887
6470
11.8873
6499
11.886
6558
11.8846
6751
11.8833
6587
11.8819
6569
11.8806
6580
11.8793
6470
11.8779
6501
11.8766
6373
11.8752
6518
11.8739
6555
11.8726
6509
11.8712
6461
11.8699
6710
11.8686
6456
11.8672
6582
11.8659
6492
11.8645
6623
11.8632
6472
11.8619
6570
11.8605
6505
11.8592
6550
11.8579
6441
11.8565
6512
11.8552
6458
11.8539
6631
11.8525
6521
11.8512
6489
11.8499
6575
11.8485
6661
11.8472
6443
11.8459
6648
11.8446
6432
11.8432
6586
11.8419
6533
11.8406
6459
11.8392
6620
11.8379
6456
11.8366
6417
11.8353
6644
11.8339
6493
11.8326
6484
11.8313
6520
11.83
6599
11.8286
6379
11.8273
6611
11.826
6552
11.8247
6503
11.8233
6497
11.822
6426
11.8207
6555
11.8194
6688
11.8181
6468
11.8167
6564
11.8154
6418
11.8141
6549
11.8128
6484
11.8115
6592
11.8101
6659
11.8088
6587
11.8075
6585
11.8062
6582
11.8049
6403
11.8036
6610
11.8022
6481
11.8009
6556
11.7996
6526
11.7983
6569
11.797
6716
11.7957
6622
11.7944
6681
11.793
6483
11.7917
6543
11.7904
6629
11.7891
6618
11.7878
6638
11.7865
6614
11.7852
6734
11.7839
6707
11.7826
6808
11.7813
6752
11.7799
6763
11.7786
6781
11.7773
6767
11.776
6767
11.7747
6992
11.7734
6840
11.7721
6976
11.7708
6924
11.7695
6828
11.7682
6871
11.7669
6883
11.7656
6860
11.7643
6653
11.763
6796
11.7617
6760
11.7604
6734
11.7591
6755
11.7578
6676
11.7565
6726
11.7552
6588
11.7539
6632
11.7526
6784
11.7513
6777
11.75
6640
11.7487
6810
11.7474
6743
11.7461
6815
11.7448
6961
11.7435
6912
11.7422
6907
11.7409
7097
11.7396
7129
11.7383
7331
11.737
7344
11.7357
7059
11.7344
6908
11.7331
6779
11.7319
6787
11.7306
6797
11.7293
6795
11.728
6758
11.7267
6728
11.7254
6711
11.7241
6676
11.7228
6446
11.7215
6540
11.7202
6552
11.719
6552
11.7177
6470
11.7164
6423
11.7151
6531
11.7138
6411
11.7125
6298
11.7112
6241
11.71
6225
11.7087
6395
11.7074
6538
11.7061
6364
11.7048
6374
11.7035
6206
11.7023
6408
11.701
6328
11.6997
6378
11.6984
6365
11.6971
6390
11.6959
6448
11.6946
6329
11.6933
6292
11.692
6292
11.6907
6349
11.6895
6392
11.6882
6219
11.6869
6502
11.6856
6440
11.6843
6438
11.6831
6273
11.6818
6378
11.6805
6568
11.6792
6396
11.678
6293
11.6767
6537
11.6754
6444
11.6742
6470
11.6729
6334
11.6716
6535
11.6703
6343
11.6691
6303
11.6678
6398
11.6665
6350
11.6653
6457
11.664
6292
11.6627
6385
11.6614
6242
11.6602
6322
11.6589
6420
11.6576
6435
11.6564
6570
11.6551
6348
11.6538
6450
11.6526
6497
11.6513
6397
11.65
6604
11.6488
6469
11.6475
6349
11.6463
6454
11.645
6364
11.6437
6303
11.6425
6562
11.6412
6317
11.6399
6457
11.6387
6364
11.6374
6282
11.6362
6340
11.6349
6385
11.6336
6284
11.6324
6459
11.6311
6400
11.6299
6392
11.6286
6318
11.6273
6363
11.6261
6389
11.6248
6311
11.6236
6336
11.6223
6277
11.6211
6332
11.6198
6300
11.6185
6303
11.6173
6426
11.616
6164
11.6148
6175
11.6135
6285
11.6123
6356
11.611
6251
11.6098
6190
11.6085
6384
11.6073
6199
11.606
6253
11.6048
6244
11.6035
6379
11.6023
6316
11.601
6336
11.5998
6238
11.5985
6316
11.5973
6264
11.596
6238
11.5948
6186
11.5935
6153
11.5923
6282
11.591
6217
11.5898
6177
11.5886
6202
11.5873
6107
11.5861
6271
11.5848
6235
11.5836
6205
11.5823
6212
11.5811
6106
11.5798
6245
11.5786
6211
11.5774
6174
11.5761
6300
11.5749
6220
11.5736
6139
11.5724
6137
11.5712
6185
11.5699
6135
11.5687
6232
11.5674
6157
11.5662
6123
11.565
6071
11.5637
6232
11.5625
6295
11.5613
6215
11.56
6167
11.5588
6137
11.5576
6182
11.5563
6182
11.5551
6215
11.5538
6153
11.5526
6163
11.5514
6135
11.5501
6083
11.5489
6299
11.5477
6066
11.5465
6089
11.5452
6049
11.544
5979
11.5428
6191
11.5415
5937
11.5403
6091
11.5391
6166
11.5378
6035
11.5366
6100
11.5354
6119
11.5342
5968
11.5329
6086
11.5317
6126
11.5305
6077
11.5292
6095
11.528
6228
11.5268
5997
11.5256
5993
11.5243
6081
11.5231
6112
11.5219
6081
11.5207
6030
11.5195
6091
11.5182
6176
11.517
6218
11.5158
6116
11.5146
6204
11.5133
6226
11.5121
6292
11.5109
6618
11.5097
6484
11.5085
6568
11.5072
6653
11.506
6599
11.5048
6955
11.5036
6916
11.5024
7130
11.5012
7128
11.4999
7268
11.4987
7455
11.4975
7487
11.4963
7524
11.4951
7681
11.4939
7433
11.4926
7433
11.4914
7298
11.4902
7229
11.489
7136
11.4878
7016
11.4866
6913
11.4854
7008
11.4842
6810
11.4829
6786
11.4817
6644
11.4805
6455
11.4793
6369
11.4781
6397
11.4769
6302
11.4757
6226
11.4745
6128
11.4733
6111
11.4721
5967
11.4708
6011
11.4696
6017
11.4684
5923
11.4672
5977
11.466
5859
11.4648
5929
11.4636
5927
11.4624
5918
11.4612
5896
11.46
5957
11.4588
5690
11.4576
6017
11.4564
5943
11.4552
5864
11.454
5830
11.4528
6018
11.4516
5821
11.4504
5873
11.4492
5911
11.448
5960
11.4468
6141
11.4456
6078
11.4444
5959
11.4432
6088
11.442
6144
11.4408
6129
11.4396
6176
11.4384
6295
11.4372
6245
11.436
6245
11.4348
6358
11.4336
6220
11.4324
6407
11.4312
6637
11.43
6417
11.4288
6690
11.4276
6866
11.4264
6832
11.4252
7180
11.424
7423
11.4229
7763
11.4217
7744
11.4205
7886
11.4193
8135
11.4181
7959
11.4169
8177
11.4157
8124
11.4145
7996
11.4133
7795
11.4121
7871
11.4109
7374
11.4098
7411
11.4086
7076
11.4074
6985
11.4062
6766
11.405
6583
11.4038
6580
11.4026
6589
11.4014
6487
11.4003
6313
11.3991
6078
11.3979
6298
11.3967
6336
11.3955
6310
11.3943
6350
11.3932
6204
11.392
6246
11.3908
5989
11.3896
6161
11.3884
6077
11.3872
6096
11.3861
5943
11.3849
5850
11.3837
5865
11.3825
5811
11.3813
5856
11.3802
5741
11.379
5905
11.3778
5808
11.3766
5754
11.3755
5892
11.3743
5763
11.3731
5755
11.3719
5817
11.3707
5774
11.3696
5768
11.3684
5888
11.3672
5829
11.366
5910
11.3649
5914
11.3637
5901
11.3625
5793
11.3613
5874
11.3602
5741
11.359
5833
11.3578
5744
11.3567
5732
11.3555
5833
11.3543
5615
11.3531
5722
11.352
5850
11.3508
5802
11.3496
5684
11.3485
5561
11.3473
5579
11.3461
5699
11.345
5610
11.3438
5554
11.3426
5754
11.3415
5666
11.3403
5597
11.3391
5597
11.338
5481
11.3368
5565
11.3356
5667
11.3345
5545
11.3333
5737
11.3321
5732
11.331
5466
11.3298
5639
11.3286
5722
11.3275
5613
11.3263
5572
11.3252
5623
11.324
5598
11.3228
5538
11.3217
5592
11.3205
5683
11.3193
5720
11.3182
5568
11.317
5581
11.3159
5472
11.3147
5580
11.3135
5606
11.3124
5616
11.3112
5524
11.3101
5438
11.3089
5594
11.3078
5505
11.3066
5615
11.3054
5605
11.3043
5543
11.3031
5550
11.302
5459
11.3008
5449
11.2997
5601
11.2985
5490
11.2974
5506
11.2962
5517
11.2951
5466
11.2939
5591
11.2928
5631
11.2916
5458
11.2905
5515
11.2893
5464
11.2881
5687
11.287
5463
11.2858
5426
11.2847
5496
11.2835
5445
11.2824
5587
11.2813
5509
11.2801
5524
11.279
5548
11.2778
5467
11.2767
5457
11.2755
5494
11.2744
5529
11.2732
5529
11.2721
5485
11.2709
5579
11.2698
5498
11.2686
5496
11.2675
5421
11.2663
5538
11.2652
5622
11.2641
5547
11.2629
5442
11.2618
5542
11.2606
5489
11.2595
5726
11.2583
5508
11.2572
5521
11.2561
5415
11.2549
5557
11.2538
5501
11.2526
5595
11.2515
5413
11.2504
5529
11.2492
5569
11.2481
5370
11.247
5462
11.2458
5547
11.2447
5574
11.2435
5430
11.2424
5452
11.2413
5481
11.2401
5506
11.239
5414
11.2379
5575
11.2367
5445
11.2356
5530
11.2345
5478
11.2333
5533
11.2322
5371
11.2311
5456
11.2299
5565
11.2288
5451
11.2277
5421
11.2265
5464
11.2254
5450
11.2243
5439
11.2231
5422
11.222
5405
11.2209
5455
11.2197
5539
11.2186
5594
11.2175
5441
11.2163
5556
11.2152
5442
11.2141
5743
11.213
5547
11.2118
5409
11.2107
5678
11.2096
5461
11.2085
5514
11.2073
5495
11.2062
5481
11.2051
5538
11.2039
5495
11.2028
5513
11.2017
5539
11.2006
5550
11.1995
5481
11.1983
5500
11.1972
5584
11.1961
5475
11.195
5496
11.1938
5495
11.1927
5416
11.1916
5453
11.1905
5579
11.1894
5519
11.1882
5569
11.1871
5515
11.186
5415
11.1849
5518
11.1838
5567
11.1826
5522
11.1815
5405
11.1804
5524
11.1793
5561
11.1782
5453
11.177
5456
11.1759
5487
11.1748
5466
11.1737
5515
11.1726
5473
11.1715
5443
11.1703
5380
11.1692
5466
11.1681
5524
11.167
5600
11.1659
5462
11.1648
5480
11.1637
5503
11.1625
5506
11.1614
5499
11.1603
5504
11.1592
5418
11.1581
5417
11.157
5450
11.1559
5535
11.1548
5525
11.1537
5408
11.1525
5410
11.1514
5495
11.1503
5489
11.1492
5609
11.1481
5562
11.147
5506
11.1459
5385
11.1448
5396
11.1437
5504
11.1426
5536
11.1415
5528
11.1404
5490
11.1393
5542
11.1382
5551
11.137
5414
11.1359
5403
11.1348
5373
11.1337
5639
11.1326
5439
11.1315
5430
11.1304
5345
11.1293
5323
11.1282
5442
11.1271
5437
11.126
5519
11.1249
5557
11.1238
5477
11.1227
5570
11.1216
5594
11.1205
5461
11.1194
5558
11.1183
5568
11.1172
5607
11.1161
5500
11.115
5551
11.1139
5482
11.1128
5418
11.1117
5465
11.1106
5455
11.1095
5362
11.1084
5588
11.1073
5485
11.1062
5589
11.1051
5502
11.104
5418
11.1029
5518
11.1018
5446
11.1008
5532
11.0997
5651
11.0986
5492
11.0975
5444
11.0964
5565
11.0953
5452
11.0942
5605
11.0931
5472
11.092
5454
11.0909
5512
11.0898
5520
11.0887
5718
11.0876
5486
11.0866
5453
11.0855
5518
11.0844
5479
11.0833
5431
11.0822
5406
11.0811
5520
11.08
5484
11.0789
5469
11.0778
5569
11.0768
5421
11.0757
5444
11.0746
5396
11.0735
5410
11.0724
5451
11.0713
5496
11.0702
5540
11.0692
5438
11.0681
5449
11.067
5547
11.0659
5455
11.0648
5518
11.0637
5481
11.0627
5399
11.0616
5508
11.0605
5381
11.0594
5533
11.0583
5464
11.0572
5459
11.0562
5431
11.0551
5358
11.054
5491
11.0529
5400
11.0518
5475
11.0508
5490
11.0497
5466
11.0486
5581
11.0475
5462
11.0464
5443
11.0454
5435
11.0443
5339
11.0432
5420
11.0421
5351
11.0411
5517
11.04
5473
11.0389
5500
11.0378
5618
11.0367
5391
11.0357
5625
11.0346
5445
11.0335
5410
11.0324
5578
11.0314
5624
11.0303
5570
11.0292
5492
11.0282
5578
11.0271
5443
11.026
5509
11.0249
5479
11.0239
5452
11.0228
5606
11.0217
5422
11.0207
5565
11.0196
5553
11.0185
5390
11.0174
5461
11.0164
5458
11.0153
5537
11.0142
5435
11.0132
5574
11.0121
5467
11.011
5511
11.01
5551
11.0089
5381
11.0078
5454
11.0068
5592
11.0057
5459
11.0046
5510
11.0036
5611
11.0025
5487
11.0014
5424
11.0004
5540
10.9993
5564
10.9982
5513
10.9972
5480
10.9961
5349
10.995
5564
10.994
5492
10.9929
5404
10.9919
5479
10.9908
5483
10.9897
5531
10.9887
5535
10.9876
5498
10.9865
5503
10.9855
5539
10.9844
5538
10.9834
5501
10.9823
5448
10.9812
5396
10.9802
5461
10.9791
5459
10.9781
5585
10.977
5437
10.9759
5437
10.9749
5378
10.9738
5475
10.9728
5549
10.9717
5485
10.9707
5422
10.9696
5638
10.9686
5435
10.9675
5451
10.9664
5578
10.9654
5488
10.9643
5487
10.9633
5510
10.9622
5641
10.9612
5500
10.9601
5485
10.9591
5526
10.958
5529
10.957
5527
10.9559
5532
10.9549
5481
10.9538
5478
10.9528
5525
10.9517
5458
10.9506
5483
10.9496
5505
10.9485
5447
10.9475
5497
10.9465
5517
10.9454
5494
10.9444
5663
10.9433
5641
10.9423
5550
10.9412
5635
10.9402
5708
10.9391
5498
10.9381
5625
10.937
5608
10.936
5597
10.9349
5708
10.9339
5786
10.9328
5544
10.9318
5523
10.9307
5615
10.9297
5632
10.9287
5516
10.9276
5422
10.9266
5715
10.9255
5540
10.9245
5508
10.9234
5485
10.9224
5757
10.9214
5567
10.9203
5500
10.9193
5611
10.9182
5541
10.9172
5612
10.9161
5505
10.9151
5478
10.9141
5614
10.913
5551
10.912
5421
10.9109
5553
10.9099
5474
10.9089
5684
10.9078
5436
10.9068
5407
10.9058
5647
10.9047
5502
10.9037
5481
10.9026
5620
10.9016
5547
10.9006
5377
10.8995
5672
10.8985
5652
10.8975
5382
10.8964
5522
10.8954
5510
10.8944
5564
10.8933
5589
10.8923
5542
10.8913
5539
10.8902
5506
10.8892
5552
10.8882
5445
10.8871
5509
10.8861
5369
10.8851
5548
10.884
5415
10.883
5579
10.882
5506
10.8809
5422
10.8799
5588
10.8789
5499
10.8778
5600
10.8768
5509
10.8758
5554
10.8748
5496
10.8737
5531
10.8727
5442
10.8717
5583
10.8706
5553
10.8696
5528
10.8686
5647
10.8676
5459
10.8665
5503
10.8655
5478
10.8645
5513
10.8635
5560
10.8624
5495
10.8614
5591
10.8604
5557
10.8594
5480
10.8583
5436
10.8573
5486
10.8563
5640
10.8553
5562
10.8542
5494
10.8532
5592
10.8522
5620
10.8512
5625
10.8501
5504
10.8491
5566
10.8481
5493
10.8471
5545
10.8461
5489
10.845
5505
10.844
5540
10.843
5586
10.842
5496
10.841
5506
10.8399
5489
10.8389
5551
10.8379
5492
10.8369
5478
10.8359
5599
10.8349
5565
10.8338
5569
10.8328
5538
10.8318
5453
10.8308
5448
10.8298
5523
10.8288
5452
10.8277
5562
10.8267
5505
10.8257
5439
10.8247
5596
10.8237
5590
10.8227
5520
10.8216
5551
10.8206
5634
10.8196
5530
10.8186
5432
10.8176
5527
10.8166
5562
10.8156
5475
10.8146
5707
10.8135
5582
10.8125
5597
10.8115
5473
10.8105
5684
10.8095
5598
10.8085
5421
10.8075
5503
10.8065
5524
10.8055
5527
10.8045
5606
10.8034
5490
10.8024
5439
10.8014
5608
10.8004
5541
10.7994
5629
10.7984
5667
10.7974
5535
10.7964
5508
10.7954
5734
10.7944
5668
10.7934
5598
10.7924
5535
10.7914
5652
10.7904
5598
10.7894
5614
10.7883
5590
10.7873
5578
10.7863
5656
10.7853
5682
10.7843
5594
10.7833
5546
10.7823
5625
10.7813
5558
10.7803
5550
10.7793
5724
10.7783
5566
10.7773
5535
10.7763
5599
10.7753
5571
10.7743
5541
10.7733
5653
10.7723
5653
10.7713
5714
10.7703
5465
10.7693
5606
10.7683
5619
10.7673
5499
10.7663
5515
10.7653
5552
10.7643
5547
10.7633
5557
10.7623
5583
10.7613
5614
10.7603
5667
10.7593
5597
10.7583
5623
10.7573
5742
10.7563
5548
10.7553
5532
10.7544
5606
10.7534
5559
10.7524
5564
10.7514
5689
10.7504
5666
10.7494
5626
10.7484
5611
10.7474
5614
10.7464
5589
10.7454
5607
10.7444
5648
10.7434
5668
10.7424
5654
10.7414
5645
10.7405
5589
10.7395
5659
10.7385
5642
10.7375
5536
10.7365
5589
10.7355
5597
10.7345
5576
10.7335
5564
10.7325
5606
10.7315
5570
10.7306
5573
10.7296
5658
10.7286
5657
10.7276
5647
10.7266
5624
10.7256
5757
10.7246
5538
10.7236
5612
10.7227
5680
10.7217
5772
10.7207
5485
10.7197
5665
10.7187
5630
10.7177
5533
10.7167
5524
10.7158
5663
10.7148
5578
10.7138
5596
10.7128
5571
10.7118
5719
10.7108
5741
10.7099
5623
10.7089
5645
10.7079
5696
10.7069
5583
10.7059
5667
10.7049
5667
10.704
5647
10.703
5705
10.702
5721
10.701
5730
10.7
5619
10.6991
5559
10.6981
5669
10.6971
5700
10.6961
5700
10.6951
5678
10.6942
5703
10.6932
5700
10.6922
5786
10.6912
5753
10.6903
5669
10.6893
5665
10.6883
5769
10.6873
5700
10.6863
5866
10.6854
5859
10.6844
5871
10.6834
5763
10.6824
5744
10.6815
5682
10.6805
5806
10.6795
5804
10.6785
5780
10.6776
5909
10.6766
5911
10.6756
5847
10.6747
5728
10.6737
5780
10.6727
5832
10.6717
5999
10.6708
5891
10.6698
6104
10.6688
5897
10.6678
5943
10.6669
6026
10.6659
6031
10.6649
5946
10.664
6087
10.663
5972
10.662
6272
10.6611
6076
10.6601
6175
10.6591
6085
10.6581
6048
10.6572
6107
10.6562
6091
10.6552
6046
10.6543
6032
10.6533
6097
10.6523
6184
10.6514
6070
10.6504
6132
10.6494
6058
10.6485
6029
10.6475
6042
10.6465
5940
10.6456
5956
10.6446
6079
10.6436
5959
10.6427
6022
10.6417
5983
10.6408
5984
10.6398
5948
10.6388
5853
10.6379
5823
10.6369
5965
10.6359
5800
10.635
5848
10.634
5914
10.6331
5848
10.6321
5767
10.6311
5903
10.6302
5724
10.6292
5853
10.6282
5831
10.6273
5630
10.6263
5805
10.6254
5782
10.6244
5592
10.6234
5843
10.6225
5776
10.6215
5678
10.6206
5719
10.6196
5882
10.6187
5527
10.6177
5535
10.6167
5619
10.6158
5602
10.6148
5639
10.6139
5782
10.6129
5583
10.612
5696
10.611
5710
10.61
5511
10.6091
5294
10.6081
5564
10.6072
5494
10.6062
5393
10.6053
5455
10.6043
5370
10.6034
5484
10.6024
5544
10.6015
5370
10.6005
5441
10.5996
5254
10.5986
5310
10.5976
5343
10.5967
5290
10.5957
5302
10.5948
5402
10.5938
5278
10.5929
5320
10.5919
5202
10.591
5181
10.59
5252
10.5891
5097
10.5881
5230
10.5872
5002
10.5862
5167
10.5853
5162
10.5843
5133
10.5834
5159
10.5824
5131
10.5815
5081
10.5805
4959
10.5796
5083
10.5787
5173
10.5777
5074
10.5768
5043
10.5758
5032
10.5749
5156
10.5739
5007
10.573
5027
10.572
5180
10.5711
5021
10.5701
5005
10.5692
5214
10.5683
5034
10.5673
4981
10.5664
5027
10.5654
5253
10.5645
5186
10.5635
5278
10.5626
5199
10.5616
5261
10.5607
5257
10.5598
5422
10.5588
5547
10.5579
5612
10.5569
5687
10.556
5897
10.5551
6009
10.5541
6438
10.5532
6761
10.5522
7076
10.5513
7508
10.5504
8120
10.5494
8564
10.5485
9170
10.5475
9823
10.5466
10582
10.5457
10905
10.5447
11485
10.5438
11841
10.5428
11861
10.5419
12061
10.541
11846
10.54
11603
10.5391
11320
10.5382
10611
10.5372
10399
10.5363
9679
10.5354
9240
10.5344
8675
10.5335
8166
10.5325
7785
10.5316
7412
10.5307
7021
10.5297
6551
10.5288
6376
10.5279
6260
10.5269
6014
10.526
5875
10.5251
5528
10.5241
5341
10.5232
5286
10.5223
5380
10.5214
5441
10.5204
5351
10.5195
5256
10.5186
5212
10.5176
5258
10.5167
5259
10.5158
5275
10.5148
5354
10.5139
5280
10.513
5237
10.512
5243
10.5111
5324
10.5102
5292
10.5093
5380
10.5083
5354
10.5074
5487
10.5065
5445
10.5055
5547
10.5046
5560
10.5037
5634
10.5028
5587
10.5018
5711
10.5009
5678
10.5
5634
10.4991
5703
10.4981
5632
10.4972
5594
10.4963
5569
10.4954
5523
10.4944
5547
10.4935
5442
10.4926
5419
10.4917
5362
10.4907
5278
10.4898
5227
10.4889
5302
10.488
5175
10.487
5111
10.4861
5144
10.4852
5089
10.4843
5102
10.4834
4978
10.4824
4959
10.4815
4917
10.4806
4802
10.4797
4821
10.4787
4846
10.4778
4797
10.4769
4978
10.476
4943
10.4751
4841
10.4742
4846
10.4732
4957
10.4723
4993
10.4714
4835
10.4705
4878
10.4696
4949
10.4686
4807
10.4677
4953
10.4668
5082
10.4659
4937
10.465
4879
10.4641
4962
10.4631
5049
10.4622
5123
10.4613
5047
10.4604
5087
10.4595
5067
10.4586
5166
10.4576
5172
10.4567
4981
10.4558
5194
10.4549
5067
10.454
5102
10.4531
5051
10.4522
5058
10.4512
5139
10.4503
5266
10.4494
5113
10.4485
5100
10.4476
5098
10.4467
5100
10.4458
5145
10.4449
5075
10.4439
5234
10.443
5191
10.4421
5185
10.4412
5106
10.4403
5034
10.4394
5065
10.4385
5018
10.4376
5064
10.4367
4978
10.4358
5092
10.4348
4995
10.4339
4978
10.433
5018
10.4321
5072
10.4312
4876
10.4303
5007
10.4294
4762
10.4285
5009
10.4276
4789
10.4267
4940
10.4258
4841
10.4249
4953
10.424
4833
10.423
5003
10.4221
4874
10.4212
4706
10.4203
4811
10.4194
4804
10.4185
4726
10.4176
4731
10.4167
4737
10.4158
4703
10.4149
4815
10.414
4692
10.4131
4683
10.4122
4912
10.4113
4842
10.4104
4735
10.4095
4752
10.4086
4770
10.4077
4559
10.4068
4743
10.4059
4599
10.405
4583
10.4041
4493
10.4032
4695
10.4023
4455
10.4014
4490
10.4005
4506
10.3996
4548
10.3987
4477
10.3978
4516
10.3969
4360
10.396
4468
10.3951
4507
10.3942
4404
10.3933
4472
10.3924
4273
10.3915
4339
10.3906
4260
10.3897
4270
10.3888
4312
10.3879
4307
10.387
4260
10.3861
4180
10.3852
4197
10.3843
4138
10.3834
4181
10.3825
4172
10.3816
4221
10.3807
4082
10.3798
4163
10.3789
4059
10.378
4089
10.3772
4043
10.3763
4071
10.3754
4063
10.3745
4013
10.3736
4011
10.3727
4117
10.3718
3964
10.3709
4004
10.37
4003
10.3691
4030
10.3682
3921
10.3673
4044
10.3664
3880
10.3655
3903
10.3647
3838
10.3638
3914
10.3629
4011
10.362
3861
10.3611
3902
10.3602
3812
10.3593
3912
10.3584
3766
10.3575
3995
10.3567
4028
10.3558
4130
10.3549
4054
10.354
4064
10.3531
4247
10.3522
4372
10.3513
4339
10.3504
4531
10.3495
4842
10.3487
5271
10.3478
5594
10.3469
5849
10.346
6421
10.3451
7161
10.3442
8015
10.3433
8679
10.3425
9594
10.3416
10338
10.3407
10783
10.3398
11413
10.3389
11731
10.338
11938
10.3372
11629
10.3363
11415
10.3354
10837
10.3345
10186
10.3336
9567
10.3327
8754
10.3319
8106
10.331
7484
10.3301
6844
10.3292
6110
10.3283
5791
10.3274
5219
10.3266
5025
10.3257
4766
10.3248
4580
10.3239
4443
10.323
4321
10.3222
4233
10.3213
4159
10.3204
4105
10.3195
4100
10.3186
4174
10.3178
4024
10.3169
4045
10.316
4134
10.3151
3933
10.3143
3987
10.3134
3949
10.3125
3921
10.3116
3952
10.3107
3969
10.3099
3990
10.309
4027
10.3081
4203
10.3072
4074
10.3064
4269
10.3055
4197
10.3046
4333
10.3037
4513
10.3029
4409
10.302
4387
10.3011
4451
10.3002
4464
10.2994
4597
10.2985
4548
10.2976
4655
10.2967
4446
10.2959
4536
10.295
4520
10.2941
4568
10.2933
4382
10.2924
4451
10.2915
4486
10.2906
4255
10.2898
4241
10.2889
4204
10.288
4083
10.2872
4050
10.2863
4104
10.2854
3971
10.2845
3869
10.2837
3771
10.2828
3861
10.2819
3747
10.2811
3892
10.2802
3716
10.2793
3878
10.2785
3778
10.2776
3722
10.2767
3841
10.2758
3858
10.275
3741
10.2741
3734
10.2732
3695
10.2724
3815
10.2715
3750
10.2706
3756
10.2698
3652
10.2689
3737
10.268
3764
10.2672
3772
10.2663
3762
10.2654
3814
10.2646
3813
10.2637
3813
10.2629
3766
10.262
3963
10.2611
3850
10.2603
3898
10.2594
3898
10.2585
3812
10.2577
3893
10.2568
3824
10.2559
3761
10.2551
3739
10.2542
3888
10.2534
3753
10.2525
3786
10.2516
3924
10.2508
3875
10.2499
3760
10.249
3868
10.2482
3954
10.2473
3895
10.2465
3884
10.2456
3867
10.2447
3926
10.2439
3978
10.243
3804
10.2422
3898
10.2413
3830
10.2404
3953
10.2396
3936
10.2387
3974
10.2379
3853
10.237
4021
10.2361
3945
10.2353
3846
10.2344
3798
10.2336
3843
10.2327
3891
10.2319
3890
10.231
3804
10.2301
3897
10.2293
3812
10.2284
3813
10.2276
3877
10.2267
3709
10.2259
3774
10.225
3891
10.2242
3907
10.2233
3847
10.2224
3770
10.2216
3788
10.2207
3735
10.2199
3789
10.219
3668
10.2182
3776
10.2173
3792
10.2165
3796
10.2156
3805
10.2148
3809
10.2139
3762
10.2131
3706
10.2122
3685
10.2114
3701
10.2105
3765
10.2097
3821
10.2088
3712
10.208
3689
10.2071
3711
10.2062
3568
10.2054
3738
10.2045
3650
10.2037
3725
10.2028
3653
10.202
3700
10.2012
3687
10.2003
3700
10.1995
3673
10.1986
3645
10.1978
3568
10.1969
3684
10.1961
3554
10.1952
3598
10.1944
3560
10.1935
3599
10.1927
3758
10.1918
3538
10.191
3747
10.1901
3612
10.1893
3618
10.1884
3672
10.1876
3566
10.1867
3634
10.1859
3638
10.1851
3688
10.1842
3606
10.1834
3589
10.1825
3727
10.1817
3638
10.1808
3598
10.18
3570
10.1791
3660
10.1783
3539
10.1775
3698
10.1766
3608
10.1758
3716
10.1749
3741
10.1741
3511
10.1732
3642
10.1724
3495
10.1716
3528
10.1707
3615
10.1699
3384
10.169
3571
10.1682
3630
10.1673
3586
10.1665
3649
10.1657
3616
10.1648
3594
10.164
3515
10.1631
3627
10.1623
3729
10.1615
3506
10.1606
3650
10.1598
3656
10.159
3747
10.1581
3624
10.1573
3644
10.1564
3688
10.1556
3731
10.1548
3658
10.1539
3618
10.1531
3646
10.1522
3748
10.1514
3699
10.1506
3776
10.1497
3757
10.1489
3669
10.1481
3747
10.1472
3636
10.1464
3785
10.1456
3735
10.1447
3694
10.1439
3716
10.1431
3722
10.1422
3705
10.1414
3792
10.1405
3764
10.1397
3689
10.1389
3872
10.138
3768
10.1372
3811
10.1364
3796
10.1355
3944
10.1347
3811
10.1339
3994
10.133
4015
10.1322
4019
10.1314
4001
10.1306
4128
10.1297
4142
10.1289
4252
10.1281
4341
10.1272
4196
10.1264
4383
10.1256
4416
10.1247
4458
10.1239
4578
10.1231
4670
10.1222
4647
10.1214
4624
10.1206
4693
10.1198
4778
10.1189
4635
10.1181
4684
10.1173
4677
10.1164
4505
10.1156
4495
10.1148
4340
10.114
4296
10.1131
4305
10.1123
4093
10.1115
4079
10.1106
3934
10.1098
3766
10.109
3719
10.1082
3664
10.1073
3666
10.1065
3606
10.1057
3591
10.1049
3542
10.104
3574
10.1032
3406
10.1024
3392
10.1016
3385
10.1007
3281
10.0999
3334
10.0991
3301
10.0983
3319
10.0974
3384
10.0966
3293
10.0958
3334
10.095
3322
10.0942
3313
10.0933
3228
10.0925
3247
10.0917
3370
10.0909
3333
10.09
3296
10.0892
3356
10.0884
3505
10.0876
3427
10.0868
3386
10.0859
3412
10.0851
3429
10.0843
3368
10.0835
3335
10.0827
3566
10.0818
3367
10.081
3362
10.0802
3407
10.0794
3493
10.0786
3382
10.0777
3441
10.0769
3555
10.0761
3484
10.0753
3557
10.0745
3574
10.0736
3658
10.0728
3573
10.072
3639
10.0712
3685
10.0704
3763
10.0696
3816
10.0687
3800
10.0679
3895
10.0671
3950
10.0663
3910
10.0655
4034
10.0647
3921
10.0638
4016
10.063
4024
10.0622
4033
10.0614
4008
10.0606
3970
10.0598
3973
10.059
3869
10.0581
3810
10.0573
3874
10.0565
3885
10.0557
3985
10.0549
3881
10.0541
3943
10.0533
3751
10.0524
3726
10.0516
3877
10.0508
3822
10.05
3858
10.0492
3823
10.0484
3724
10.0476
3661
10.0468
3685
10.046
3669
10.0451
3774
10.0443
3545
10.0435
3572
10.0427
3540
10.0419
3525
10.0411
3585
10.0403
3598
10.0395
3459
10.0387
3426
10.0379
3334
10.037
3347
10.0362
3365
10.0354
3419
10.0346
3283
10.0338
3223
10.033
3342
10.0322
3345
10.0314
3187
10.0306
3246
10.0298
3280
10.029
3282
10.0282
3165
10.0274
3309
10.0265
3120
10.0257
3155
10.0249
3114
10.0241
3219
10.0233
3151
10.0225
3083
10.0217
3270
10.0209
3095
10.0201
3168
10.0193
3113
10.0185
3085
10.0177
3175
10.0169
3180
10.0161
3131
10.0153
3020
10.0145
3102
10.0137
3022
10.0129
3051
10.0121
3137
10.0113
3079
10.0105
3054
10.0097
3145
10.0089
3143
10.008
3030
10.0072
3084
10.0064
3180
10.0056
3099
10.0048
3091
10.004
3057
10.0032
2961
10.0024
3016
10.0016
3121
10.0008
3060
10
3083
9.99924
3124
9.99844
3027
9.99764
3035
9.99684
3142
9.99604
3015
9.99524
3061
9.99444
3104
9.99365
2997
9.99285
3101
9.99205
2990
9.99125
3030
9.99045
3023
9.98966
2997
9.98886
3028
9.98806
3033
9.98726
3151
9.98647
3008
9.98567
2952
9.98487
3052
9.98408
04-Pd
Pd-AlOx
2015
12
2
18
11
0
0
13
Casa Info Follows
0
0
0
0
File = F:\Anna-Lenovo\2015\XPS-analysis\Pd-AlOx\02-12-15\02-12-15-AK-60-asis-01-bis.xml
Group = Pd-AlOx
First of group = 0
Analyzer lens = MediumArea
Analyzer slit = 5:7x20\2:open
Scan mode = FixedAnalyzerTransmission
Kinetic energy start = 897.6
Kinetic energy base = 0
XPS
1
0
0
0
Mg
1253.6
0
0
0
0
0
FAT
20
1
4.61
0
0
0
0
0
04-Pd

-1
kinetic energy
eV
897.6
0.1
2
counts
d
Transmission
d
pulse counting
0.5
12
0
0
0
0
0
502
27552
31744
2.95207
2.9931
29209
2.9931
29454
2.99294
29602
2.99277
29806
2.9926
29179
2.99243
29362
2.99227
29839
2.9921
29430
2.99193
29655
2.99176
29734
2.9916
29510
2.99143
29359
2.99126
29468
2.99109
29291
2.99093
29564
2.99076
29514
2.99059
29397
2.99043
29145
2.99026
29563
2.99009
29431
2.98992
29265
2.98976
29445
2.98959
29223
2.98942
29611
2.98926
29122
2.98909
29488
2.98892
29461
2.98876
29442
2.98859
29471
2.98842
29459
2.98825
29583
2.98809
29200
2.98792
29736
2.98775
29568
2.98759
29636
2.98742
29251
2.98725
29380
2.98709
29345
2.98692
29252
2.98676
29547
2.98659
29170
2.98642
29259
2.98626
29901
2.98609
29395
2.98592
29719
2.98576
29591
2.98559
29187
2.98542
29514
2.98526
29438
2.98509
29227
2.98493
29694
2.98476
29341
2.98459
29457
2.98443
29796
2.98426
29496
2.98409
29638
2.98393
29408
2.98376
29597
2.9836
29573
2.98343
29699
2.98326
29526
2.9831
29587
2.98293
29489
2.98277
29674
2.9826
29589
2.98243
29609
2.98227
29536
2.9821
29698
2.98194
29764
2.98177
29957
2.98161
30065
2.98144
29467
2.98127
29746
2.98111
29934
2.98094
29887
2.98078
29806
2.98061
29916
2.98045
30341
2.98028
30085
2.98012
30422
2.97995
30590
2.97979
30232
2.97962
30185
2.97945
30410
2.97929
30558
2.97912
30521
2.97896
30459
2.97879
31093
2.97863
30745
2.97846
30824
2.9783
30815
2.97813
30763
2.97797
31003
2.9778
30917
2.97764
30753
2.97747
30904
2.97731
30733
2.97714
30834
2.97698
30738
2.97681
30558
2.97665
30684
2.97648
30734
2.97632
30495
2.97615
30496
2.97599
30186
2.97582
30268
2.97566
30318
2.9755
30170
2.97533
30071
2.97517
30238
2.975
30255
2.97484
29553
2.97467
29902
2.97451
29916
2.97434
29574
2.97418
29887
2.97401
29639
2.97385
29601
2.97369
29815
2.97352
29637
2.97336
29796
2.97319
29759
2.97303
29451
2.97286
29764
2.9727
29417
2.97254
29823
2.97237
29862
2.97221
30138
2.97204
30193
2.97188
30365
2.97172
30532
2.97155
30485
2.97139
30468
2.97122
30376
2.97106
30414
2.9709
30713
2.97073
30869
2.97057
30932
2.9704
31228
2.97024
31044
2.97008
31201
2.96991
31744
2.96975
31738
2.96959
31632
2.96942
31650
2.96926
31553
2.96909
31502
2.96893
31313
2.96877
31417
2.9686
31501
2.96844
31411
2.96828
31488
2.96811
31233
2.96795
30822
2.96779
30954
2.96762
30538
2.96746
30870
2.9673
30567
2.96713
30125
2.96697
30286
2.96681
30094
2.96664
29806
2.96648
29786
2.96632
29596
2.96615
29550
2.96599
29233
2.96583
29269
2.96567
29095
2.9655
29254
2.96534
29247
2.96518
28778
2.96501
28658
2.96485
28686
2.96469
28765
2.96452
28730
2.96436
28385
2.9642
28295
2.96404
28450
2.96387
28376
2.96371
28495
2.96355
28472
2.96339
28098
2.96322
28256
2.96306
28171
2.9629
28340
2.96274
27899
2.96257
28221
2.96241
28102
2.96225
28446
2.96209
27869
2.96192
28260
2.96176
28161
2.9616
28226
2.96144
27829
2.96127
28418
2.96111
28127
2.96095
28006
2.96079
28010
2.96062
27800
2.96046
28065
2.9603
27992
2.96014
27922
2.95998
28180
2.95981
27882
2.95965
27846
2.95949
27916
2.95933
27552
2.95917
27741
2.959
27796
2.95884
27853
2.95868
27629
2.95852
27859
2.95836
27783
2.95819
27901
2.95803
27803
2.95787
27634
2.95771
27720
2.95755
27865
2.95739
27867
2.95722
27661
2.95706
27659
2.9569
28052
2.95674
27814
2.95658
28017
2.95642
27922
2.95626
27801
2.95609
27938
2.95593
28032
2.95577
27964
2.95561
27966
2.95545
28119
2.95529
28220
2.95513
28107
2.95496
27579
2.9548
27934
2.95464
28210
2.95448
28223
2.95432
28017
2.95416
27855
2.954
28434
2.95384
27907
2.95367
28079
2.95351
28022
2.95335
28137
2.95319
28225
2.95303
27898
2.95287
27996
2.95271
28233
2.95255
27915
2.95239
28051
2.95223
28083
2.95207
05-Al2p
Pd-AlOx
2015
12
2
18
13
27
0
13
Casa Info Follows
0
0
0
0
File = F:\Anna-Lenovo\2015\XPS-analysis\Pd-AlOx\02-12-15\02-12-15-AK-60-asis-01-bis.xml
Group = Pd-AlOx
First of group = 0
Analyzer lens = MediumArea
Analyzer slit = 5:7x20\2:open
Scan mode = FixedAnalyzerTransmission
Kinetic energy start = 1163.6
Kinetic energy base = 0
XPS
1
0
0
0
Mg
1253.6
0
0
0
0
0
FAT
20
1
4.61
0
0
0
0
0
05-Al2p

-1
kinetic energy
eV
1163.6
0.1
2
counts
d
Transmission
d
pulse counting
0.5
4
0
0
0
0
0
502
3926
13711
2.59939
2.62727
4731
2.62727
4672
2.62716
4518
2.62705
4651
2.62693
4606
2.62682
4554
2.62671
4645
2.62659
4483
2.62648
4472
2.62637
4560
2.62625
4502
2.62614
4588
2.62603
4558
2.62591
4511
2.6258
4544
2.62569
4507
2.62557
4480
2.62546
4540
2.62535
4446
2.62523
4500
2.62512
4359
2.62501
4454
2.6249
4540
2.62478
4408
2.62467
4390
2.62456
4245
2.62444
4358
2.62433
4378
2.62422
4363
2.6241
4386
2.62399
4534
2.62388
4352
2.62377
4516
2.62365
4356
2.62354
4479
2.62343
4245
2.62331
4360
2.6232
4307
2.62309
4269
2.62298
4339
2.62286
4392
2.62275
4304
2.62264
4279
2.62253
4323
2.62241
4337
2.6223
4375
2.62219
4288
2.62207
4258
2.62196
4312
2.62185
4278
2.62174
4283
2.62162
4412
2.62151
4368
2.6214
4230
2.62129
4287
2.62117
4349
2.62106
4298
2.62095
4341
2.62084
4440
2.62072
4401
2.62061
4303
2.6205
4319
2.62039
4272
2.62027
4347
2.62016
4284
2.62005
4255
2.61994
4318
2.61982
4365
2.61971
4308
2.6196
4395
2.61949
4316
2.61937
4330
2.61926
4359
2.61915
4561
2.61904
4407
2.61893
4494
2.61881
4420
2.6187
4617
2.61859
4597
2.61848
4636
2.61836
4746
2.61825
4781
2.61814
4907
2.61803
4938
2.61792
5102
2.6178
5225
2.61769
5490
2.61758
5540
2.61747
5897
2.61735
6182
2.61724
6442
2.61713
6968
2.61702
7239
2.61691
7543
2.61679
8107
2.61668
8596
2.61657
8870
2.61646
9658
2.61635
10209
2.61623
10808
2.61612
11048
2.61601
11479
2.6159
12161
2.61579
12367
2.61568
12741
2.61556
12963
2.61545
13457
2.61534
13436
2.61523
13678
2.61512
13711
2.615
13335
2.61489
13397
2.61478
12921
2.61467
12457
2.61456
12248
2.61445
11881
2.61433
11220
2.61422
10760
2.61411
10383
2.614
10039
2.61389
9440
2.61378
8898
2.61366
8541
2.61355
8031
2.61344
7596
2.61333
7192
2.61322
6802
2.61311
6510
2.613
6291
2.61288
6012
2.61277
5658
2.61266
5676
2.61255
5375
2.61244
5182
2.61233
5190
2.61222
4936
2.6121
4869
2.61199
4832
2.61188
4731
2.61177
4656
2.61166
4626
2.61155
4561
2.61144
4568
2.61132
4594
2.61121
4373
2.6111
4414
2.61099
4477
2.61088
4384
2.61077
4365
2.61066
4399
2.61055
4303
2.61043
4317
2.61032
4337
2.61021
4432
2.6101
4288
2.60999
4409
2.60988
4209
2.60977
4254
2.60966
4393
2.60955
4313
2.60943
4230
2.60932
4331
2.60921
4291
2.6091
4310
2.60899
4301
2.60888
4257
2.60877
4309
2.60866
4340
2.60855
4338
2.60844
4255
2.60832
4169
2.60821
4317
2.6081
4392
2.60799
4366
2.60788
4250
2.60777
4348
2.60766
4340
2.60755
4370
2.60744
4450
2.60733
4470
2.60722
4410
2.60711
4412
2.60699
4544
2.60688
4575
2.60677
4606
2.60666
4525
2.60655
4710
2.60644
4657
2.60633
4819
2.60622
4775
2.60611
4700
2.606
4908
2.60589
4842
2.60578
4887
2.60567
4937
2.60556
4976
2.60545
4930
2.60534
4840
2.60522
4889
2.60511
5015
2.605
4917
2.60489
5017
2.60478
4802
2.60467
4889
2.60456
4913
2.60445
4855
2.60434
4979
2.60423
4935
2.60412
4775
2.60401
4898
2.6039
4882
2.60379
4982
2.60368
4867
2.60357
4583
2.60346
4762
2.60335
4755
2.60324
4747
2.60313
4561
2.60302
4645
2.60291
4497
2.6028
4439
2.60269
4511
2.60258
4443
2.60247
4367
2.60236
4416
2.60225
4341
2.60214
4196
2.60203
4362
2.60192
4194
2.60181
4253
2.6017
4175
2.60159
4114
2.60148
4103
2.60137
4101
2.60126
4046
2.60115
4250
2.60104
3951
2.60093
4087
2.60082
4049
2.60071
4092
2.6006
4004
2.60049
3926
2.60038
4007
2.60027
4153
2.60016
4089
2.60005
4053
2.59994
4084
2.59983
4090
2.59972
4055
2.59961
4039
2.5995
4126
2.59939
05-Al2s
Pd-AlOx
2015
12
2
18
15
52
0
13
Casa Info Follows
0
0
0
0
File = F:\Anna-Lenovo\2015\XPS-analysis\Pd-AlOx\02-12-15\02-12-15-AK-60-asis-01-bis.xml
Group = Pd-AlOx
First of group = 0
Analyzer lens = MediumArea
Analyzer slit = 5:7x20\2:open
Scan mode = FixedAnalyzerTransmission
Kinetic energy start = 1119.6
Kinetic energy base = 0
XPS
1
0
0
0
Mg
1253.6
0
0
0
0
0
FAT
20
1
4.61
0
0
0
0
0
05-Al2s

-1
kinetic energy
eV
1119.6
0.1
2
counts
d
Transmission
d
pulse counting
0.5
4
0
0
0
0
0
462
5362
14132
2.6514
2.67861
5888
2.67861
5822
2.67849
5868
2.67837
5984
2.67825
5908
2.67813
5889
2.67801
5771
2.67789
5899
2.67777
5841
2.67765
5648
2.67753
5808
2.67741
5836
2.67729
5907
2.67717
5715
2.67705
5698
2.67693
5758
2.67681
5919
2.67669
5957
2.67657
5835
2.67645
5726
2.67633
5801
2.67621
5996
2.67609
5851
2.67597
5852
2.67585
5673
2.67573
5804
2.67561
5651
2.67549
5730
2.67537
5777
2.67525
5750
2.67513
5843
2.67501
5651
2.67489
5899
2.67477
5758
2.67466
5650
2.67454
5804
2.67442
5780
2.6743
5686
2.67418
5733
2.67406
5692
2.67394
5710
2.67382
5784
2.6737
5802
2.67358
5726
2.67346
5740
2.67334
5783
2.67322
5790
2.6731
5824
2.67298
5852
2.67286
5732
2.67274
5857
2.67262
5806
2.67251
5915
2.67239
5753
2.67227
5816
2.67215
5846
2.67203
5695
2.67191
5989
2.67179
5831
2.67167
5866
2.67155
5990
2.67143
5893
2.67131
6006
2.67119
6118
2.67107
6088
2.67096
6136
2.67084
6166
2.67072
6395
2.6706
6451
2.67048
6468
2.67036
6412
2.67024
6527
2.67012
6713
2.67
6966
2.66988
7016
2.66977
7127
2.66965
7255
2.66953
7368
2.66941
7786
2.66929
7929
2.66917
8272
2.66905
8324
2.66893
8758
2.66881
9007
2.6687
9449
2.66858
10024
2.66846
9960
2.66834
10611
2.66822
10924
2.6681
11242
2.66798
11526
2.66786
12279
2.66775
12445
2.66763
12855
2.66751
13141
2.66739
13474
2.66727
13773
2.66715
14045
2.66703
13947
2.66692
13994
2.6668
14132
2.66668
14030
2.66656
14088
2.66644
13804
2.66632
13624
2.6662
13395
2.66609
13188
2.66597
12872
2.66585
12326
2.66573
12179
2.66561
11771
2.66549
11169
2.66538
10999
2.66526
10639
2.66514
10239
2.66502
10002
2.6649
9352
2.66478
9157
2.66467
9069
2.66455
8538
2.66443
8499
2.66431
8257
2.66419
7985
2.66407
7751
2.66396
7481
2.66384
7453
2.66372
7255
2.6636
7214
2.66348
6968
2.66337
6828
2.66325
6743
2.66313
6711
2.66301
6487
2.66289
6475
2.66278
6410
2.66266
6367
2.66254
6285
2.66242
6101
2.6623
6198
2.66219
6094
2.66207
6103
2.66195
6095
2.66183
5986
2.66171
5906
2.6616
5817
2.66148
5991
2.66136
5905
2.66124
5895
2.66113
5871
2.66101
5795
2.66089
5885
2.66077
5831
2.66065
5886
2.66054
5773
2.66042
5692
2.6603
5795
2.66018
5873
2.66007
5764
2.65995
5759
2.65983
5849
2.65971
5692
2.6596
5890
2.65948
5714
2.65936
5941
2.65924
5964
2.65913
5827
2.65901
5931
2.65889
5849
2.65877
5746
2.65866
5950
2.65854
5945
2.65842
5883
2.6583
5954
2.65819
6078
2.65807
5869
2.65795
6164
2.65783
6120
2.65772
6090
2.6576
6109
2.65748
6091
2.65736
6165
2.65725
6239
2.65713
6203
2.65701
6324
2.6569
6114
2.65678
6405
2.65666
6251
2.65654
6270
2.65643
6146
2.65631
6273
2.65619
6375
2.65608
6297
2.65596
6436
2.65584
6440
2.65572
6205
2.65561
6241
2.65549
6348
2.65537
6311
2.65526
6371
2.65514
6104
2.65502
6240
2.6549
6244
2.65479
6236
2.65467
6187
2.65455
6115
2.65444
6210
2.65432
6205
2.6542
6131
2.65409
5981
2.65397
6047
2.65385
5977
2.65374
5896
2.65362
5940
2.6535
5893
2.65339
5692
2.65327
5965
2.65315
5742
2.65304
5824
2.65292
5740
2.6528
5605
2.65269
5730
2.65257
5578
2.65245
5657
2.65234
5714
2.65222
5600
2.6521
5466
2.65199
5571
2.65187
5587
2.65175
5362
2.65164
5457
2.65152
5467
2.6514
05-O1s
Pd-AlOx
2015
12
2
18
18
9
0
13
Casa Info Follows
0
0
0
0
File = F:\Anna-Lenovo\2015\XPS-analysis\Pd-AlOx\02-12-15\02-12-15-AK-60-asis-01-bis.xml
Group = Pd-AlOx
First of group = 0
Analyzer lens = MediumArea
Analyzer slit = 5:7x20\2:open
Scan mode = FixedAnalyzerTransmission
Kinetic energy start = 703.6
Kinetic energy base = 0
XPS
1
0
0
0
Mg
1253.6
0
0
0
0
0
FAT
20
1
4.61
0
0
0
0
0
05-O1s

-1
kinetic energy
eV
703.6
0.1
2
counts
d
Transmission
d
pulse counting
0.5
3
0
0
0
0
0
702
9985
58698
3.30141
3.38306
16359
3.38306
16214
3.38282
16197
3.38257
15987
3.38233
15939
3.38209
15879
3.38185
15980
3.38161
15997
3.38137
15866
3.38112
15652
3.38088
15824
3.38064
15540
3.3804
15583
3.38016
15700
3.37992
15346
3.37968
15497
3.37943
15351
3.37919
15331
3.37895
15357
3.37871
15063
3.37847
14857
3.37823
15048
3.37799
14954
3.37775
14928
3.37751
14978
3.37727
14643
3.37702
14886
3.37678
14626
3.37654
14523
3.3763
14575
3.37606
14509
3.37582
14231
3.37558
14248
3.37534
14283
3.3751
14262
3.37486
13965
3.37462
14149
3.37438
13974
3.37414
14074
3.3739
13968
3.37366
13812
3.37342
13687
3.37318
14054
3.37294
13603
3.3727
13570
3.37246
13438
3.37222
13639
3.37198
13572
3.37174
13283
3.3715
13470
3.37126
13321
3.37102
13076
3.37078
13274
3.37054
13478
3.37031
13087
3.37007
12863
3.36983
12998
3.36959
12744
3.36935
13099
3.36911
12893
3.36887
12806
3.36863
12634
3.36839
12904
3.36815
12681
3.36792
12673
3.36768
12625
3.36744
12628
3.3672
12637
3.36696
12847
3.36672
12493
3.36648
12477
3.36624
12620
3.36601
12635
3.36577
12516
3.36553
12413
3.36529
12358
3.36505
12428
3.36482
12288
3.36458
12320
3.36434
12584
3.3641
12461
3.36386
12495
3.36363
12447
3.36339
12346
3.36315
12569
3.36291
12298
3.36267
12689
3.36244
12568
3.3622
12461
3.36196
12540
3.36172
12650
3.36149
12634
3.36125
12645
3.36101
12695
3.36078
12796
3.36054
13060
3.3603
12935
3.36006
13200
3.35983
13210
3.35959
13420
3.35935
13516
3.35912
13845
3.35888
14086
3.35864
14414
3.35841
14684
3.35817
15063
3.35793
15427
3.3577
16100
3.35746
16620
3.35722
16868
3.35699
17837
3.35675
18639
3.35651
19350
3.35628
20652
3.35604
21422
3.3558
22653
3.35557
23918
3.35533
25125
3.3551
26950
3.35486
28178
3.35462
29566
3.35439
31567
3.35415
33819
3.35392
35440
3.35368
37479
3.35344
38995
3.35321
41266
3.35297
43439
3.35274
45301
3.3525
46979
3.35227
48673
3.35203
50592
3.3518
52944
3.35156
53907
3.35133
55484
3.35109
56946
3.35085
56999
3.35062
58443
3.35038
58568
3.35015
58624
3.34991
58698
3.34968
58379
3.34944
57290
3.34921
56406
3.34898
55213
3.34874
54162
3.34851
52149
3.34827
50139
3.34804
48591
3.3478
46643
3.34757
44211
3.34733
42141
3.3471
39988
3.34686
37657
3.34663
35396
3.3464
33391
3.34616
31488
3.34593
29514
3.34569
27644
3.34546
26337
3.34523
24720
3.34499
23395
3.34476
22126
3.34452
20767
3.34429
19705
3.34406
18867
3.34382
18239
3.34359
17499
3.34336
16718
3.34312
16131
3.34289
15419
3.34265
15113
3.34242
14483
3.34219
14190
3.34195
13815
3.34172
13719
3.34149
13423
3.34126
13121
3.34102
12923
3.34079
13124
3.34056
12877
3.34032
12439
3.34009
12620
3.33986
12483
3.33962
12329
3.33939
12373
3.33916
12137
3.33893
12307
3.33869
11979
3.33846
12022
3.33823
12174
3.338
11873
3.33776
12084
3.33753
11952
3.3373
12390
3.33707
12001
3.33683
12247
3.3366
12139
3.33637
12158
3.33614
12312
3.33591
12111
3.33567
12061
3.33544
12276
3.33521
12397
3.33498
12794
3.33475
12677
3.33451
12727
3.33428
12817
3.33405
13181
3.33382
13140
3.33359
13336
3.33336
13276
3.33313
13450
3.33289
13860
3.33266
13723
3.33243
14019
3.3322
14336
3.33197
14337
3.33174
14599
3.33151
14864
3.33128
14864
3.33104
15221
3.33081
15362
3.33058
15282
3.33035
15467
3.33012
15476
3.32989
15441
3.32966
15510
3.32943
15686
3.3292
15800
3.32897
15867
3.32874
15539
3.32851
15583
3.32828
15604
3.32805
15503
3.32781
15445
3.32758
15608
3.32735
15369
3.32712
15465
3.32689
15180
3.32666
15127
3.32643
14816
3.3262
15002
3.32597
14650
3.32574
14458
3.32551
14119
3.32528
14054
3.32505
14058
3.32482
13918
3.32459
13562
3.32437
13287
3.32414
13324
3.32391
13014
3.32368
12986
3.32345
12632
3.32322
12494
3.32299
12248
3.32276
12272
3.32253
11959
3.3223
11951
3.32207
11490
3.32184
11746
3.32161
11452
3.32138
11342
3.32116
11102
3.32093
11141
3.3207
10852
3.32047
11050
3.32024
10543
3.32001
10764
3.31978
10669
3.31955
10681
3.31932
10402
3.3191
10343
3.31887
10379
3.31864
10477
3.31841
10303
3.31818
10330
3.31795
10544
3.31773
10356
3.3175
10370
3.31727
10359
3.31704
10477
3.31681
10167
3.31659
10346
3.31636
10288
3.31613
10284
3.3159
10174
3.31567
10232
3.31545
10364
3.31522
9985
3.31499
10309
3.31476
10254
3.31454
10341
3.31431
10188
3.31408
10241
3.31385
10263
3.31363
10153
3.3134
10069
3.31317
10330
3.31294
10422
3.31272
10460
3.31249
10360
3.31226
10247
3.31203
10533
3.31181
10237
3.31158
10331
3.31135
10337
3.31113
10386
3.3109
10149
3.31067
10347
3.31045
10411
3.31022
10460
3.30999
10232
3.30977
10387
3.30954
10383
3.30931
10376
3.30909
10545
3.30886
10379
3.30863
10466
3.30841
10498
3.30818
10440
3.30795
10329
3.30773
10451
3.3075
10300
3.30728
10489
3.30705
10171
3.30682
10444
3.3066
10343
3.30637
10418
3.30615
10346
3.30592
10630
3.30569
10170
3.30547
10220
3.30524
10340
3.30502
10188
3.30479
10306
3.30457
10257
3.30434
10323
3.30412
10452
3.30389
10212
3.30366
10323
3.30344
10319
3.30321
10254
3.30299
10190
3.30276
10251
3.30254
10204
3.30231
10271
3.30209
10260
3.30186
10137
3.30164
10060
3.30141
05-C1s
Pd-AlOx
2015
12
2
18
21
26
0
13
Casa Info Follows
0
0
0
0
File = F:\Anna-Lenovo\2015\XPS-analysis\Pd-AlOx\02-12-15\02-12-15-AK-60-asis-01-bis.xml
Group = Pd-AlOx
First of group = 0
Analyzer lens = MediumArea
Analyzer slit = 5:7x20\2:open
Scan mode = FixedAnalyzerTransmission
Kinetic energy start = 942.6
Kinetic energy base = 0
XPS
1
0
0
0
Mg
1253.6
0
0
0
0
0
FAT
20
1
4.61
0
0
0
0
0
05-C1s

-1
kinetic energy
eV
942.6
0.1
2
counts
d
Transmission
d
pulse counting
0.5
4
0
0
0
0
0
682
7515
12054
2.86889
2.92042
8857
2.92042
8600
2.92027
8818
2.92011
8754
2.91996
8701
2.9198
8601
2.91965
8777
2.91949
8518
2.91933
8726
2.91918
8600
2.91902
8699
2.91887
8552
2.91871
8736
2.91856
8594
2.9184
8705
2.91825
8694
2.91809
8560
2.91794
8615
2.91778
8568
2.91763
8535
2.91747
8676
2.91732
8784
2.91716
8791
2.91701
8689
2.91685
8654
2.91669
8607
2.91654
8620
2.91638
8579
2.91623
8439
2.91607
8647
2.91592
8698
2.91576
8578
2.91561
8583
2.91545
8721
2.9153
8437
2.91515
8616
2.91499
8428
2.91484
8792
2.91468
8621
2.91453
8400
2.91437
8535
2.91422
8565
2.91406
8447
2.91391
8707
2.91375
8514
2.9136
8666
2.91344
8696
2.91329
8700
2.91313
8754
2.91298
8789
2.91283
8759
2.91267
8807
2.91252
8764
2.91236
8858
2.91221
8785
2.91205
8838
2.9119
9021
2.91174
9254
2.91159
9029
2.91144
9119
2.91128
9361
2.91113
9384
2.91097
9280
2.91082
9541
2.91067
9516
2.91051
9662
2.91036
9716
2.9102
9696
2.91005
9851
2.9099
9930
2.90974
10104
2.90959
10107
2.90943
10080
2.90928
10322
2.90913
10342
2.90897
10470
2.90882
10521
2.90866
10562
2.90851
10823
2.90836
10606
2.9082
10714
2.90805
10708
2.9079
10623
2.90774
10533
2.90759
10553
2.90743
10303
2.90728
10385
2.90713
10246
2.90697
10282
2.90682
10375
2.90667
10032
2.90651
9968
2.90636
10066
2.90621
9752
2.90605
9670
2.9059
9768
2.90575
9535
2.90559
9528
2.90544
9336
2.90529
9170
2.90513
9184
2.90498
8826
2.90483
9051
2.90467
8960
2.90452
9055
2.90437
8967
2.90421
8846
2.90406
8598
2.90391
8634
2.90375
8655
2.9036
8680
2.90345
8516
2.9033
8549
2.90314
8554
2.90299
8493
2.90284
8381
2.90268
8300
2.90253
8405
2.90238
8393
2.90223
8266
2.90207
8240
2.90192
8340
2.90177
8164
2.90161
8115
2.90146
8253
2.90131
8139
2.90116
8028
2.901
8252
2.90085
8172
2.9007
8207
2.90055
8199
2.90039
7983
2.90024
8168
2.90009
8070
2.89994
8146
2.89978
8221
2.89963
8112
2.89948
8338
2.89933
8105
2.89917
8062
2.89902
8169
2.89887
8100
2.89872
8119
2.89857
8295
2.89841
8332
2.89826
8023
2.89811
8149
2.89796
8262
2.89781
8174
2.89765
8169
2.8975
8216
2.89735
8140
2.8972
8358
2.89705
8097
2.89689
8219
2.89674
8233
2.89659
8219
2.89644
8272
2.89629
8240
2.89613
8170
2.89598
8143
2.89583
8422
2.89568
8301
2.89553
8373
2.89537
8430
2.89522
8312
2.89507
8561
2.89492
8534
2.89477
8519
2.89462
8462
2.89447
8534
2.89431
8487
2.89416
8544
2.89401
8410
2.89386
8658
2.89371
8507
2.89356
8501
2.8934
8506
2.89325
8559
2.8931
8690
2.89295
8572
2.8928
8518
2.89265
8614
2.8925
8603
2.89235
8538
2.89219
8609
2.89204
8914
2.89189
8885
2.89174
8792
2.89159
8822
2.89144
9059
2.89129
9010
2.89114
9149
2.89099
9272
2.89083
9419
2.89068
9394
2.89053
9950
2.89038
9865
2.89023
9929
2.89008
10074
2.88993
10368
2.88978
10535
2.88963
10584
2.88948
10703
2.88933
10912
2.88918
11138
2.88902
11335
2.88887
11533
2.88872
11797
2.88857
11643
2.88842
11939
2.88827
12017
2.88812
12054
2.88797
11926
2.88782
12052
2.88767
11822
2.88752
11992
2.88737
11747
2.88722
11690
2.88707
11305
2.88692
11181
2.88677
10958
2.88662
10826
2.88647
10517
2.88632
10164
2.88617
10194
2.88601
9862
2.88586
9818
2.88571
9726
2.88556
9343
2.88541
9249
2.88526
9302
2.88511
9184
2.88496
9124
2.88481
9090
2.88466
8947
2.88451
8729
2.88436
8774
2.88421
8967
2.88406
8757
2.88391
8612
2.88376
8490
2.88361
8790
2.88346
8492
2.88331
8482
2.88316
8467
2.88301
8539
2.88287
8366
2.88272
8367
2.88257
8470
2.88242
8251
2.88227
8438
2.88212
8265
2.88197
8294
2.88182
8231
2.88167
8024
2.88152
8308
2.88137
8187
2.88122
8315
2.88107
8254
2.88092
8162
2.88077
8286
2.88062
8179
2.88047
8141
2.88032
8044
2.88017
7953
2.88002
7852
2.87987
8087
2.87973
7852
2.87958
7692
2.87943
8027
2.87928
7821
2.87913
7764
2.87898
7744
2.87883
7835
2.87868
7729
2.87853
7834
2.87838
7680
2.87823
7695
2.87809
7769
2.87794
7704
2.87779
7610
2.87764
7700
2.87749
7765
2.87734
7714
2.87719
7780
2.87704
7762
2.87689
7748
2.87675
7773
2.8766
7788
2.87645
7963
2.8763
7872
2.87615
7817
2.876
8084
2.87585
7934
2.8757
7972
2.87556
7970
2.87541
7831
2.87526
7899
2.87511
7953
2.87496
7867
2.87481
8046
2.87466
7986
2.87452
7900
2.87437
7903
2.87422
7997
2.87407
8020
2.87392
7963
2.87377
8000
2.87363
7989
2.87348
7945
2.87333
7878
2.87318
7945
2.87303
7908
2.87288
8031
2.87274
7720
2.87259
7812
2.87244
7917
2.87229
7861
2.87214
7835
2.872
7805
2.87185
7781
2.8717
7684
2.87155
7625
2.8714
7693
2.87126
7558
2.87111
7791
2.87096
7785
2.87081
7893
2.87066
7638
2.87052
7828
2.87037
7839
2.87022
7603
2.87007
7618
2.86992
7597
2.86978
7654
2.86963
7642
2.86948
7580
2.86933
7587
2.86919
7515
2.86904
7703
2.86889
06-Pd
Pd-AlOx
2015
12
2
19
21
35
0
13
Casa Info Follows
0
0
0
0
File = F:\Anna-Lenovo\2015\XPS-analysis\Pd-AlOx\02-12-15\02-12-15-AK-60-asis-01-bis.xml
Group = Pd-AlOx
First of group = 0
Analyzer lens = MediumArea
Analyzer slit = 5:7x20\2:open
Scan mode = FixedAnalyzerTransmission
Kinetic energy start = 897.6
Kinetic energy base = 0
XPS
1
0
0
0
Mg
1253.6
0
0
0
0
0
FAT
20
1
4.61
0
0
0
0
0
06-Pd

-1
kinetic energy
eV
897.6
0.1
2
counts
d
Transmission
d
pulse counting
0.5
7
0
0
0
0
0
482
16049
18431
2.95367
2.9931
17173
2.9931
17180
2.99294
17257
2.99277
17362
2.9926
17242
2.99243
17209
2.99227
17493
2.9921
17247
2.99193
17282
2.99176
17267
2.9916
17281
2.99143
17149
2.99126
17208
2.99109
17249
2.99093
17325
2.99076
17398
2.99059
17311
2.99043
17263
2.99026
17450
2.99009
17233
2.98992
17416
2.98976
17380
2.98959
17123
2.98942
17162
2.98926
17161
2.98909
17088
2.98892
17342
2.98876
17318
2.98859
17029
2.98842
16996
2.98825
17282
2.98809
17278
2.98792
17227
2.98775
17236
2.98759
17183
2.98742
17415
2.98725
17299
2.98709
17247
2.98692
17180
2.98676
17177
2.98659
17388
2.98642
17188
2.98626
17329
2.98609
17153
2.98592
17277
2.98576
17233
2.98559
17431
2.98542
16994
2.98526
17122
2.98509
17071
2.98493
17298
2.98476
17186
2.98459
17161
2.98443
17216
2.98426
17153
2.98409
17028
2.98393
17422
2.98376
17322
2.9836
17018
2.98343
17360
2.98326
17183
2.9831
17239
2.98293
17216
2.98277
17439
2.9826
17221
2.98243
17407
2.98227
17378
2.9821
17224
2.98194
17288
2.98177
17365
2.98161
17283
2.98144
17556
2.98127
17603
2.98111
17559
2.98094
17161
2.98078
17437
2.98061
17568
2.98045
17556
2.98028
17656
2.98012
17474
2.97995
17665
2.97979
17774
2.97962
17662
2.97945
17853
2.97929
17917
2.97912
18033
2.97896
17619
2.97879
17829
2.97863
17990
2.97846
17729
2.9783
17763
2.97813
17829
2.97797
18034
2.9778
18260
2.97764
18112
2.97747
18012
2.97731
18248
2.97714
18190
2.97698
18065
2.97681
18021
2.97665
17731
2.97648
18066
2.97632
17830
2.97615
17880
2.97599
17715
2.97582
17789
2.97566
17819
2.9755
17777
2.97533
17537
2.97517
17593
2.975
17824
2.97484
17234
2.97467
17515
2.97451
17584
2.97434
17626
2.97418
17462
2.97401
17182
2.97385
17304
2.97369
17422
2.97352
17440
2.97336
17456
2.97319
17414
2.97303
16990
2.97286
17166
2.9727
17253
2.97254
17356
2.97237
17373
2.97221
17673
2.97204
17311
2.97188
17442
2.97172
17670
2.97155
17889
2.97139
17583
2.97122
17745
2.97106
17562
2.9709
17715
2.97073
18135
2.97057
17963
2.9704
18070
2.97024
18128
2.97008
17859
2.96991
18222
2.96975
18091
2.96959
18053
2.96942
18149
2.96926
18430
2.96909
18252
2.96893
18421
2.96877
18386
2.9686
18220
2.96844
18431
2.96828
18244
2.96811
18158
2.96795
18158
2.96779
17958
2.96762
18068
2.96746
17939
2.9673
18060
2.96713
17632
2.96697
17591
2.96681
17646
2.96664
17631
2.96648
17230
2.96632
17417
2.96615
17457
2.96599
17233
2.96583
17042
2.96567
17253
2.9655
17259
2.96534
17220
2.96518
17075
2.96501
17012
2.96485
16701
2.96469
16958
2.96452
16693
2.96436
16780
2.9642
16539
2.96404
16493
2.96387
16830
2.96371
16822
2.96355
16782
2.96339
16680
2.96322
16478
2.96306
16483
2.9629
16417
2.96274
16547
2.96257
16593
2.96241
16611
2.96225
16491
2.96209
16604
2.96192
16261
2.96176
16253
2.9616
16525
2.96144
16348
2.96127
16580
2.96111
16073
2.96095
16245
2.96079
16458
2.96062
16404
2.96046
16437
2.9603
16482
2.96014
16319
2.95998
16482
2.95981
16270
2.95965
16215
2.95949
16365
2.95933
16441
2.95917
16657
2.959
16359
2.95884
16456
2.95868
16395
2.95852
16325
2.95836
16352
2.95819
16129
2.95803
16316
2.95787
16231
2.95771
16207
2.95755
16202
2.95739
16388
2.95722
16445
2.95706
16230
2.9569
16433
2.95674
16193
2.95658
16343
2.95642
16569
2.95626
16267
2.95609
16156
2.95593
16237
2.95577
16496
2.95561
16171
2.95545
16327
2.95529
16393
2.95513
16281
2.95496
16354
2.9548
16478
2.95464
16165
2.95448
16299
2.95432
16189
2.95416
16553
2.954
16244
2.95384
16049
2.95367
06-Al2p
Pd-AlOx
2015
12
2
19
23
56
0
13
Casa Info Follows
0
0
0
0
File = F:\Anna-Lenovo\2015\XPS-analysis\Pd-AlOx\02-12-15\02-12-15-AK-60-asis-01-bis.xml
Group = Pd-AlOx
First of group = 0
Analyzer lens = MediumArea
Analyzer slit = 5:7x20\2:open
Scan mode = FixedAnalyzerTransmission
Kinetic energy start = 1163.6
Kinetic energy base = 0
XPS
1
0
0
0
Mg
1253.6
0
0
0
0
0
FAT
20
1
4.61
0
0
0
0
0
06-Al2p

-1
kinetic energy
eV
1163.6
0.1
2
counts
d
Transmission
d
pulse counting
0.5
3
0
0
0
0
0
502
2916
10088
2.59939
2.62727
3587
2.62727
3529
2.62716
3595
2.62705
3541
2.62693
3443
2.62682
3409
2.62671
3372
2.62659
3471
2.62648
3532
2.62637
3413
2.62625
3430
2.62614
3402
2.62603
3282
2.62591
3309
2.6258
3416
2.62569
3377
2.62557
3395
2.62546
3354
2.62535
3414
2.62523
3387
2.62512
3253
2.62501
3347
2.6249
3351
2.62478
3383
2.62467
3368
2.62456
3290
2.62444
3151
2.62433
3316
2.62422
3262
2.6241
3361
2.62399
3286
2.62388
3223
2.62377
3179
2.62365
3278
2.62354
3288
2.62343
3161
2.62331
3224
2.6232
3290
2.62309
3233
2.62298
3291
2.62286
3215
2.62275
3155
2.62264
3336
2.62253
3355
2.62241
3217
2.6223
3190
2.62219
3255
2.62207
3249
2.62196
3234
2.62185
3172
2.62174
3247
2.62162
3209
2.62151
3157
2.6214
3311
2.62129
3317
2.62117
3264
2.62106
3133
2.62095
3245
2.62084
3250
2.62072
3236
2.62061
3168
2.6205
3242
2.62039
3284
2.62027
3268
2.62016
3232
2.62005
3161
2.61994
3275
2.61982
3279
2.61971
3246
2.6196
3215
2.61949
3278
2.61937
3342
2.61926
3258
2.61915
3290
2.61904
3338
2.61893
3454
2.61881
3321
2.6187
3438
2.61859
3392
2.61848
3424
2.61836
3574
2.61825
3681
2.61814
3712
2.61803
3821
2.61792
3796
2.6178
3903
2.61769
3856
2.61758
4084
2.61747
4292
2.61735
4406
2.61724
4554
2.61713
4937
2.61702
5137
2.61691
5445
2.61679
5588
2.61668
6017
2.61657
6440
2.61646
6762
2.61635
7266
2.61623
7458
2.61612
8084
2.61601
8412
2.6159
8693
2.61579
9260
2.61568
9144
2.61556
9729
2.61545
9784
2.61534
10076
2.61523
10057
2.61512
10021
2.615
9983
2.61489
10088
2.61478
9827
2.61467
9554
2.61456
9481
2.61445
9320
2.61433
8733
2.61422
8408
2.61411
8105
2.614
7713
2.61389
7413
2.61378
6779
2.61366
6656
2.61355
6224
2.61344
6009
2.61333
5678
2.61322
5379
2.61311
5078
2.613
4799
2.61288
4628
2.61277
4397
2.61266
4307
2.61255
4077
2.61244
3963
2.61233
3867
2.61222
3798
2.6121
3745
2.61199
3623
2.61188
3465
2.61177
3521
2.61166
3496
2.61155
3398
2.61144
3467
2.61132
3401
2.61121
3347
2.6111
3377
2.61099
3209
2.61088
3289
2.61077
3372
2.61066
3243
2.61055
3326
2.61043
3279
2.61032
3240
2.61021
3187
2.6101
3310
2.60999
3249
2.60988
3304
2.60977
3349
2.60966
3128
2.60955
3256
2.60943
3277
2.60932
3214
2.60921
3220
2.6091
3244
2.60899
3196
2.60888
3207
2.60877
3177
2.60866
3183
2.60855
3168
2.60844
3218
2.60832
3172
2.60821
3163
2.6081
3122
2.60799
3198
2.60788
3184
2.60777
3287
2.60766
3263
2.60755
3215
2.60744
3311
2.60733
3271
2.60722
3396
2.60711
3311
2.60699
3472
2.60688
3386
2.60677
3332
2.60666
3441
2.60655
3429
2.60644
3452
2.60633
3452
2.60622
3636
2.60611
3566
2.606
3568
2.60589
3725
2.60578
3627
2.60567
3570
2.60556
3603
2.60545
3710
2.60534
3649
2.60522
3738
2.60511
3734
2.605
3767
2.60489
3747
2.60478
3795
2.60467
3732
2.60456
3659
2.60445
3649
2.60434
3726
2.60423
3605
2.60412
3699
2.60401
3648
2.6039
3634
2.60379
3494
2.60368
3667
2.60357
3623
2.60346
3555
2.60335
3540
2.60324
3562
2.60313
3513
2.60302
3465
2.60291
3415
2.6028
3391
2.60269
3272
2.60258
3281
2.60247
3411
2.60236
3201
2.60225
3255
2.60214
3150
2.60203
3186
2.60192
3175
2.60181
3188
2.6017
3154
2.60159
3143
2.60148
3199
2.60137
3122
2.60126
3151
2.60115
2989
2.60104
3154
2.60093
3030
2.60082
3086
2.60071
2964
2.6006
3040
2.60049
3009
2.60038
2977
2.60027
3027
2.60016
3093
2.60005
2990
2.59994
3109
2.59983
3102
2.59972
2916
2.59961
3047
2.5995
3061
2.59939
06-Al2s
Pd-AlOx
2015
12
2
19
26
21
0
13
Casa Info Follows
0
0
0
0
File = F:\Anna-Lenovo\2015\XPS-analysis\Pd-AlOx\02-12-15\02-12-15-AK-60-asis-01-bis.xml
Group = Pd-AlOx
First of group = 0
Analyzer lens = MediumArea
Analyzer slit = 5:7x20\2:open
Scan mode = FixedAnalyzerTransmission
Kinetic energy start = 1119.6
Kinetic energy base = 0
XPS
1
0
0
0
Mg
1253.6
0
0
0
0
0
FAT
20
1
4.61
0
0
0
0
0
06-Al2s

-1
kinetic energy
eV
1119.6
0.1
2
counts
d
Transmission
d
pulse counting
0.5
3
0
0
0
0
0
482
4024
10600
2.65024
2.67861
4456
2.67861
4437
2.67849
4383
2.67837
4459
2.67825
4492
2.67813
4504
2.67801
4568
2.67789
4465
2.67777
4509
2.67765
4385
2.67753
4355
2.67741
4301
2.67729
4412
2.67717
4282
2.67705
4240
2.67693
4337
2.67681
4250
2.67669
4293
2.67657
4311
2.67645
4287
2.67633
4303
2.67621
4451
2.67609
4295
2.67597
4268
2.67585
4371
2.67573
4309
2.67561
4264
2.67549
4329
2.67537
4483
2.67525
4251
2.67513
4240
2.67501
4324
2.67489
4280
2.67477
4319
2.67466
4320
2.67454
4327
2.67442
4226
2.6743
4243
2.67418
4177
2.67406
4203
2.67394
4270
2.67382
4416
2.6737
4425
2.67358
4318
2.67346
4265
2.67334
4233
2.67322
4234
2.6731
4352
2.67298
4365
2.67286
4340
2.67274
4382
2.67262
4439
2.67251
4381
2.67239
4455
2.67227
4283
2.67215
4476
2.67203
4445
2.67191
4442
2.67179
4372
2.67167
4531
2.67155
4352
2.67143
4481
2.67131
4487
2.67119
4595
2.67107
4602
2.67096
4590
2.67084
4550
2.67072
4557
2.6706
4778
2.67048
4711
2.67036
4825
2.67024
4828
2.67012
5004
2.67
5085
2.66988
5121
2.66977
5129
2.66965
5313
2.66953
5482
2.66941
5616
2.66929
5801
2.66917
5951
2.66905
6174
2.66893
6332
2.66881
6631
2.6687
6854
2.66858
7165
2.66846
7410
2.66834
7722
2.66822
7995
2.6681
8341
2.66798
8374
2.66786
8827
2.66775
9009
2.66763
9393
2.66751
9371
2.66739
9824
2.66727
9951
2.66715
10153
2.66703
10287
2.66692
10314
2.6668
10547
2.66668
10600
2.66656
10417
2.66644
10494
2.66632
10218
2.6662
10436
2.66609
9847
2.66597
9772
2.66585
9408
2.66573
9359
2.66561
8993
2.66549
8876
2.66538
8369
2.66526
8042
2.66514
7928
2.66502
7542
2.6649
7483
2.66478
7088
2.66467
6878
2.66455
6692
2.66443
6483
2.66431
6280
2.66419
5996
2.66407
5793
2.66396
5783
2.66384
5494
2.66372
5410
2.6636
5482
2.66348
5244
2.66337
5215
2.66325
5098
2.66313
5055
2.66301
4975
2.66289
4967
2.66278
4755
2.66266
4766
2.66254
4753
2.66242
4744
2.6623
4649
2.66219
4716
2.66207
4657
2.66195
4650
2.66183
4612
2.66171
4529
2.6616
4329
2.66148
4505
2.66136
4393
2.66124
4372
2.66113
4373
2.66101
4431
2.66089
4345
2.66077
4487
2.66065
4404
2.66054
4312
2.66042
4331
2.6603
4304
2.66018
4336
2.66007
4311
2.65995
4400
2.65983
4311
2.65971
4373
2.6596
4268
2.65948
4339
2.65936
4355
2.65924
4437
2.65913
4244
2.65901
4358
2.65889
4329
2.65877
4374
2.65866
4325
2.65854
4437
2.65842
4393
2.6583
4485
2.65819
4479
2.65807
4628
2.65795
4427
2.65783
4458
2.65772
4695
2.6576
4659
2.65748
4524
2.65736
4619
2.65725
4755
2.65713
4589
2.65701
4625
2.6569
4687
2.65678
4781
2.65666
4785
2.65654
4746
2.65643
4883
2.65631
4857
2.65619
4691
2.65608
4812
2.65596
4758
2.65584
4626
2.65572
4787
2.65561
4694
2.65549
4659
2.65537
4639
2.65526
4657
2.65514
4644
2.65502
4672
2.6549
4611
2.65479
4564
2.65467
4567
2.65455
4659
2.65444
4658
2.65432
4592
2.6542
4608
2.65409
4454
2.65397
4518
2.65385
4490
2.65374
4428
2.65362
4393
2.6535
4451
2.65339
4374
2.65327
4377
2.65315
4299
2.65304
4358
2.65292
4290
2.6528
4333
2.65269
4315
2.65257
4266
2.65245
4249
2.65234
4187
2.65222
4233
2.6521
4299
2.65199
4171
2.65187
4079
2.65175
4128
2.65164
4185
2.65152
4096
2.6514
4092
2.65129
4088
2.65117
4060
2.65105
4032
2.65094
4063
2.65082
4071
2.6507
4054
2.65059
4024
2.65047
4143
2.65036
4110
2.65024
06-C1s
Pd-AlOx
2015
12
2
19
28
43
0
13
Casa Info Follows
0
0
0
0
File = F:\Anna-Lenovo\2015\XPS-analysis\Pd-AlOx\02-12-15\02-12-15-AK-60-asis-01-bis.xml
Group = Pd-AlOx
First of group = 0
Analyzer lens = MediumArea
Analyzer slit = 5:7x20\2:open
Scan mode = FixedAnalyzerTransmission
Kinetic energy start = 942.6
Kinetic energy base = 0
XPS
1
0
0
0
Mg
1253.6
0
0
0
0
0
FAT
20
1
4.61
0
0
0
0
0
06-C1s

-1
kinetic energy
eV
942.6
0.1
2
counts
d
Transmission
d
pulse counting
0.5
3
0
0
0
0
0
682
5628
9439
2.86889
2.92042
6476
2.92042
6604
2.92027
6609
2.92011
6569
2.91996
6497
2.9198
6548
2.91965
6516
2.91949
6405
2.91933
6628
2.91918
6524
2.91902
6456
2.91887
6570
2.91871
6484
2.91856
6639
2.9184
6492
2.91825
6575
2.91809
6488
2.91794
6443
2.91778
6463
2.91763
6486
2.91747
6434
2.91732
6328
2.91716
6389
2.91701
6469
2.91685
6455
2.91669
6413
2.91654
6443
2.91638
6640
2.91623
6470
2.91607
6493
2.91592
6364
2.91576
6577
2.91561
6467
2.91545
6511
2.9153
6497
2.91515
6645
2.91499
6430
2.91484
6491
2.91468
6516
2.91453
6454
2.91437
6551
2.91422
6458
2.91406
6418
2.91391
6660
2.91375
6420
2.9136
6558
2.91344
6641
2.91329
6496
2.91313
6652
2.91298
6404
2.91283
6612
2.91267
6545
2.91252
6602
2.91236
6752
2.91221
6556
2.91205
6649
2.9119
6757
2.91174
6743
2.91159
6794
2.91144
6751
2.91128
6874
2.91113
6979
2.91097
7018
2.91082
7010
2.91067
7170
2.91051
7259
2.91036
7182
2.9102
7209
2.91005
7503
2.9099
7448
2.90974
7469
2.90959
7539
2.90943
7727
2.90928
7679
2.90913
7626
2.90897
7792
2.90882
8021
2.90866
7957
2.90851
7913
2.90836
7763
2.9082
7931
2.90805
7844
2.9079
7953
2.90774
7925
2.90759
8047
2.90743
7907
2.90728
7852
2.90713
7682
2.90697
7804
2.90682
7854
2.90667
7718
2.90651
7524
2.90636
7618
2.90621
7519
2.90605
7440
2.9059
7252
2.90575
7305
2.90559
7261
2.90544
7121
2.90529
7089
2.90513
7113
2.90498
6953
2.90483
6892
2.90467
6806
2.90452
6728
2.90437
6659
2.90421
6737
2.90406
6635
2.90391
6545
2.90375
6363
2.9036
6421
2.90345
6416
2.9033
6381
2.90314
6444
2.90299
6370
2.90284
6331
2.90268
6260
2.90253
6278
2.90238
6339
2.90223
6264
2.90207
6322
2.90192
6254
2.90177
6189
2.90161
6249
2.90146
6178
2.90131
6068
2.90116
6018
2.901
6110
2.90085
6096
2.9007
6145
2.90055
6198
2.90039
6161
2.90024
6118
2.90009
6010
2.89994
6144
2.89978
6080
2.89963
6157
2.89948
6158
2.89933
6135
2.89917
6059
2.89902
6105
2.89887
5869
2.89872
6022
2.89857
6112
2.89841
6138
2.89826
6131
2.89811
6085
2.89796
6015
2.89781
6012
2.89765
5992
2.8975
6201
2.89735
6131
2.8972
6086
2.89705
6199
2.89689
6100
2.89674
6289
2.89659
6138
2.89644
6118
2.89629
6220
2.89613
6167
2.89598
6278
2.89583
6303
2.89568
6226
2.89553
6389
2.89537
6301
2.89522
6320
2.89507
6345
2.89492
6360
2.89477
6297
2.89462
6403
2.89447
6250
2.89431
6483
2.89416
6352
2.89401
6421
2.89386
6221
2.89371
6323
2.89356
6429
2.8934
6520
2.89325
6378
2.8931
6452
2.89295
6411
2.8928
6452
2.89265
6572
2.8925
6653
2.89235
6437
2.89219
6649
2.89204
6525
2.89189
6558
2.89174
6494
2.89159
6623
2.89144
6617
2.89129
6660
2.89114
6676
2.89099
6988
2.89083
7058
2.89068
6981
2.89053
7293
2.89038
7384
2.89023
7625
2.89008
7460
2.88993
7667
2.88978
7785
2.88963
7920
2.88948
8327
2.88933
8267
2.88918
8587
2.88902
8596
2.88887
8895
2.88872
8816
2.88857
8980
2.88842
9130
2.88827
9247
2.88812
9439
2.88797
9349
2.88782
9335
2.88767
9300
2.88752
9248
2.88737
9052
2.88722
9076
2.88707
9005
2.88692
8775
2.88677
8656
2.88662
8293
2.88647
8432
2.88632
8203
2.88617
8033
2.88601
7873
2.88586
7682
2.88571
7537
2.88556
7331
2.88541
7099
2.88526
7201
2.88511
7022
2.88496
6921
2.88481
6891
2.88466
6905
2.88451
6752
2.88436
6843
2.88421
6528
2.88406
6576
2.88391
6538
2.88376
6502
2.88361
6463
2.88346
6498
2.88331
6507
2.88316
6518
2.88301
6413
2.88287
6345
2.88272
6441
2.88257
6301
2.88242
6316
2.88227
6228
2.88212
6179
2.88197
6306
2.88182
6111
2.88167
6195
2.88152
6283
2.88137
6166
2.88122
6011
2.88107
6153
2.88092
6073
2.88077
6187
2.88062
5956
2.88047
6064
2.88032
6135
2.88017
6061
2.88002
5909
2.87987
6097
2.87973
5956
2.87958
5903
2.87943
6024
2.87928
5832
2.87913
5853
2.87898
5823
2.87883
5761
2.87868
5776
2.87853
5769
2.87838
5772
2.87823
5628
2.87809
5869
2.87794
5721
2.87779
5751
2.87764
5869
2.87749
5779
2.87734
5679
2.87719
5931
2.87704
5804
2.87689
5792
2.87675
5890
2.8766
5905
2.87645
5891
2.8763
5838
2.87615
5985
2.876
5832
2.87585
6007
2.8757
5978
2.87556
5875
2.87541
5993
2.87526
6018
2.87511
6123
2.87496
6036
2.87481
6045
2.87466
5983
2.87452
5954
2.87437
5941
2.87422
6128
2.87407
6049
2.87392
6066
2.87377
5940
2.87363
5952
2.87348
6200
2.87333
5794
2.87318
5925
2.87303
5934
2.87288
5934
2.87274
5865
2.87259
5893
2.87244
5900
2.87229
5841
2.87214
5921
2.872
5787
2.87185
5876
2.8717
5884
2.87155
5701
2.8714
5786
2.87126
5757
2.87111
5833
2.87096
5716
2.87081
5836
2.87066
5872
2.87052
5800
2.87037
5754
2.87022
5831
2.87007
5811
2.86992
5689
2.86978
5678
2.86963
5715
2.86948
5651
2.86933
5721
2.86919
5682
2.86904
5748
2.86889
end of experiment
